block,answer,word,trial_type,trial_index,subject_id,correctness,resptime,stim_type,duration,year
NULL,NULL,NULL,text,0,nlepstei,NULL,NULL,NULL,NULL,2017
0,C,CONE,multi-stim-multi-response,1,nlepstei,1,2884,word,50,2017
0,P,SPIN,multi-stim-multi-response,2,nlepstei,1,4280,word,50,2017
0,S,KASM,multi-stim-multi-response,3,nlepstei,1,2297,nonword,50,2017
0,R,KARM,multi-stim-multi-response,4,nlepstei,1,3499,nonword,50,2017
0,O,EOMS,multi-stim-multi-response,5,nlepstei,0,3456,nonword,50,2017
0,A,EAMS,multi-stim-multi-response,6,nlepstei,0,2980,nonword,50,2017
0,C,CENO,multi-stim-multi-response,7,nlepstei,0,3461,nonword,50,2017
0,O,SOME,multi-stim-multi-response,8,nlepstei,1,3099,word,50,2017
0,L,LAKE,multi-stim-multi-response,9,nlepstei,1,2787,word,50,2017
0,R,BOAR,multi-stim-multi-response,10,nlepstei,1,2330,word,50,2017
0,S,MASK,multi-stim-multi-response,11,nlepstei,1,2716,word,50,2017
0,R,ABOR,multi-stim-multi-response,12,nlepstei,0,3112,nonword,50,2017
0,L,EAL,multi-stim-multi-response,13,nlepstei,1,2255,word,50,2017
0,G,GONE,multi-stim-multi-response,14,nlepstei,1,2422,word,50,2017
0,L,LKEA,multi-stim-multi-response,15,nlepstei,1,2057,nonword,50,2017
0,N,CTNA,multi-stim-multi-response,16,nlepstei,1,2492,nonword,50,2017
0,L,ERAL,multi-stim-multi-response,17,nlepstei,0,2034,nonword,50,2017
0,D,READ,multi-stim-multi-response,18,nlepstei,0,1836,word,50,2017
0,K,NKIS,multi-stim-multi-response,19,nlepstei,1,1974,nonword,50,2017
0,G,GENO,multi-stim-multi-response,20,nlepstei,0,2301,nonword,50,2017
0,T,BOAT,multi-stim-multi-response,21,nlepstei,0,12641,word,50,2017
0,N,CANT,multi-stim-multi-response,22,nlepstei,1,5174,word,50,2017
0,A,SAME,multi-stim-multi-response,23,nlepstei,1,3215,word,50,2017
0,T,TKEA,multi-stim-multi-response,24,nlepstei,0,5794,nonword,50,2017
0,R,CART,multi-stim-multi-response,25,nlepstei,0,3982,word,50,2017
0,P,NPIS,multi-stim-multi-response,26,nlepstei,1,2637,nonword,50,2017
0,R,MARK,multi-stim-multi-response,27,nlepstei,1,3475,word,50,2017
0,D,ERAD,multi-stim-multi-response,28,nlepstei,1,4831,nonword,50,2017
0,T,TAKE,multi-stim-multi-response,29,nlepstei,0,2900,word,50,2017
0,K,SKIN,multi-stim-multi-response,30,nlepstei,1,2113,word,50,2017
0,T,ABOT,multi-stim-multi-response,31,nlepstei,1,2425,nonword,50,2017
0,R,CTRA,multi-stim-multi-response,32,nlepstei,0,3672,nonword,50,2017
NULL,NULL,NULL,text,33,nlepstei,NULL,NULL,NULL,NULL,2017
1,R,CART,multi-stim-multi-response,34,nlepstei,1,3498,word,50,2017
1,T,BOAT,multi-stim-multi-response,35,nlepstei,1,2845,word,50,2017
1,T,TAKE,multi-stim-multi-response,36,nlepstei,0,4987,word,50,2017
1,T,ABOT,multi-stim-multi-response,37,nlepstei,0,2687,nonword,50,2017
1,L,LAKE,multi-stim-multi-response,38,nlepstei,0,2612,word,50,2017
1,R,KARM,multi-stim-multi-response,39,nlepstei,0,3764,nonword,50,2017
1,R,MARK,multi-stim-multi-response,40,nlepstei,1,2046,word,50,2017
1,R,BOAR,multi-stim-multi-response,41,nlepstei,0,10183,word,50,2017
1,P,SPIN,multi-stim-multi-response,42,nlepstei,1,3165,word,50,2017
1,N,CANT,multi-stim-multi-response,43,nlepstei,1,3005,word,50,2017
1,S,KASM,multi-stim-multi-response,44,nlepstei,1,2266,nonword,50,2017
1,A,EAMS,multi-stim-multi-response,45,nlepstei,0,2732,nonword,50,2017
1,D,READ,multi-stim-multi-response,46,nlepstei,0,2873,word,50,2017
1,L,EAL,multi-stim-multi-response,47,nlepstei,0,2433,word,50,2017
1,N,CTNA,multi-stim-multi-response,48,nlepstei,1,2010,nonword,50,2017
1,K,SKIN,multi-stim-multi-response,49,nlepstei,0,2258,word,50,2017
1,C,CONE,multi-stim-multi-response,50,nlepstei,0,2163,word,50,2017
1,R,ABOR,multi-stim-multi-response,51,nlepstei,0,2372,nonword,50,2017
1,O,SOME,multi-stim-multi-response,52,nlepstei,1,2119,word,50,2017
1,O,EOMS,multi-stim-multi-response,53,nlepstei,0,2406,nonword,50,2017
1,R,CTRA,multi-stim-multi-response,54,nlepstei,0,2975,nonword,50,2017
1,G,GONE,multi-stim-multi-response,55,nlepstei,0,2472,word,50,2017
1,S,MASK,multi-stim-multi-response,56,nlepstei,0,3297,word,50,2017
1,P,NPIS,multi-stim-multi-response,57,nlepstei,1,3687,nonword,50,2017
1,D,ERAD,multi-stim-multi-response,58,nlepstei,0,2660,nonword,50,2017
1,K,NKIS,multi-stim-multi-response,59,nlepstei,0,2866,nonword,50,2017
1,A,SAME,multi-stim-multi-response,60,nlepstei,1,2536,word,50,2017
1,C,CENO,multi-stim-multi-response,61,nlepstei,1,2354,nonword,50,2017
1,T,TKEA,multi-stim-multi-response,62,nlepstei,0,3018,nonword,50,2017
1,L,ERAL,multi-stim-multi-response,63,nlepstei,1,2334,nonword,50,2017
1,L,LKEA,multi-stim-multi-response,64,nlepstei,1,1825,nonword,50,2017
1,G,GENO,multi-stim-multi-response,65,nlepstei,0,2152,nonword,50,2017
NULL,NULL,NULL,text,66,nlepstei,NULL,NULL,NULL,NULL,2017
2,A,SAME,multi-stim-multi-response,67,nlepstei,0,1974,word,50,2017
2,P,SPIN,multi-stim-multi-response,68,nlepstei,0,2082,word,50,2017
2,T,ABOT,multi-stim-multi-response,69,nlepstei,1,2134,nonword,50,2017
2,L,LKEA,multi-stim-multi-response,70,nlepstei,0,1791,nonword,50,2017
2,P,NPIS,multi-stim-multi-response,71,nlepstei,1,2101,nonword,50,2017
2,R,MARK,multi-stim-multi-response,72,nlepstei,1,1911,word,50,2017
2,R,ABOR,multi-stim-multi-response,73,nlepstei,0,2575,nonword,50,2017
2,N,CTNA,multi-stim-multi-response,74,nlepstei,1,1880,nonword,50,2017
2,L,ERAL,multi-stim-multi-response,75,nlepstei,0,1607,nonword,50,2017
2,T,TKEA,multi-stim-multi-response,76,nlepstei,0,1996,nonword,50,2017
2,L,LAKE,multi-stim-multi-response,77,nlepstei,1,1950,word,50,2017
2,T,BOAT,multi-stim-multi-response,78,nlepstei,0,2333,word,50,2017
2,G,GENO,multi-stim-multi-response,79,nlepstei,0,2118,nonword,50,2017
2,S,KASM,multi-stim-multi-response,80,nlepstei,0,1832,nonword,50,2017
2,K,SKIN,multi-stim-multi-response,81,nlepstei,1,2389,word,50,2017
2,L,EAL,multi-stim-multi-response,82,nlepstei,1,1929,word,50,2017
2,G,GONE,multi-stim-multi-response,83,nlepstei,0,2229,word,50,2017
2,A,EAMS,multi-stim-multi-response,84,nlepstei,0,2019,nonword,50,2017
2,D,ERAD,multi-stim-multi-response,85,nlepstei,0,2150,nonword,50,2017
2,C,CENO,multi-stim-multi-response,86,nlepstei,1,1760,nonword,50,2017
2,R,KARM,multi-stim-multi-response,87,nlepstei,1,1834,nonword,50,2017
2,S,MASK,multi-stim-multi-response,88,nlepstei,1,2204,word,50,2017
2,T,TAKE,multi-stim-multi-response,89,nlepstei,1,1965,word,50,2017
2,O,EOMS,multi-stim-multi-response,90,nlepstei,1,2274,nonword,50,2017
2,O,SOME,multi-stim-multi-response,91,nlepstei,0,1815,word,50,2017
2,N,CANT,multi-stim-multi-response,92,nlepstei,0,1935,word,50,2017
2,K,NKIS,multi-stim-multi-response,93,nlepstei,1,2025,nonword,50,2017
2,D,READ,multi-stim-multi-response,94,nlepstei,0,2261,word,50,2017
2,R,CTRA,multi-stim-multi-response,95,nlepstei,1,2394,nonword,50,2017
2,R,BOAR,multi-stim-multi-response,96,nlepstei,0,2384,word,50,2017
2,R,CART,multi-stim-multi-response,97,nlepstei,0,2372,word,50,2017
2,C,CONE,multi-stim-multi-response,98,nlepstei,1,2066,word,50,2017
NULL,NULL,NULL,text,99,nlepstei,NULL,NULL,NULL,NULL,2017
3,O,EOMS,multi-stim-multi-response,100,nlepstei,1,2365,nonword,50,2017
3,K,SKIN,multi-stim-multi-response,101,nlepstei,0,3593,word,50,2017
3,R,ABOR,multi-stim-multi-response,102,nlepstei,0,2955,nonword,50,2017
3,D,ERAD,multi-stim-multi-response,103,nlepstei,0,2783,nonword,50,2017
3,O,SOME,multi-stim-multi-response,104,nlepstei,0,2342,word,50,2017
3,S,KASM,multi-stim-multi-response,105,nlepstei,0,2204,nonword,50,2017
3,R,CART,multi-stim-multi-response,106,nlepstei,0,2930,word,50,2017
3,T,ABOT,multi-stim-multi-response,107,nlepstei,1,2440,nonword,50,2017
3,K,NKIS,multi-stim-multi-response,108,nlepstei,0,3159,nonword,50,2017
3,G,GENO,multi-stim-multi-response,109,nlepstei,0,2244,nonword,50,2017
3,P,NPIS,multi-stim-multi-response,110,nlepstei,1,3319,nonword,50,2017
3,L,ERAL,multi-stim-multi-response,111,nlepstei,1,2320,nonword,50,2017
3,C,CENO,multi-stim-multi-response,112,nlepstei,1,2037,nonword,50,2017
3,C,CONE,multi-stim-multi-response,113,nlepstei,1,2130,word,50,2017
3,T,TAKE,multi-stim-multi-response,114,nlepstei,0,2057,word,50,2017
3,T,BOAT,multi-stim-multi-response,115,nlepstei,1,1910,word,50,2017
3,R,KARM,multi-stim-multi-response,116,nlepstei,0,2048,nonword,50,2017
3,D,READ,multi-stim-multi-response,117,nlepstei,0,2053,word,50,2017
3,R,CTRA,multi-stim-multi-response,118,nlepstei,0,2156,nonword,50,2017
3,R,MARK,multi-stim-multi-response,119,nlepstei,0,2517,word,50,2017
3,T,TKEA,multi-stim-multi-response,120,nlepstei,0,3082,nonword,50,2017
3,L,LKEA,multi-stim-multi-response,121,nlepstei,0,2119,nonword,50,2017
3,L,LAKE,multi-stim-multi-response,122,nlepstei,1,1905,word,50,2017
3,S,MASK,multi-stim-multi-response,123,nlepstei,1,2103,word,50,2017
3,N,CTNA,multi-stim-multi-response,124,nlepstei,1,2178,nonword,50,2017
3,A,EAMS,multi-stim-multi-response,125,nlepstei,1,2047,nonword,50,2017
3,N,CANT,multi-stim-multi-response,126,nlepstei,0,2299,word,50,2017
3,A,SAME,multi-stim-multi-response,127,nlepstei,1,1886,word,50,2017
3,L,EAL,multi-stim-multi-response,128,nlepstei,1,1787,word,50,2017
3,R,BOAR,multi-stim-multi-response,129,nlepstei,0,3589,word,50,2017
3,G,GONE,multi-stim-multi-response,130,nlepstei,0,2247,word,50,2017
3,P,SPIN,multi-stim-multi-response,131,nlepstei,1,2628,word,50,2017
NULL,NULL,NULL,text,132,nlepstei,NULL,NULL,NULL,NULL,2017
4,C,CENO,multi-stim-multi-response,133,nlepstei,1,1983,nonword,50,2017
4,L,EAL,multi-stim-multi-response,134,nlepstei,1,2036,word,50,2017
4,S,MASK,multi-stim-multi-response,135,nlepstei,1,2486,word,50,2017
4,R,MARK,multi-stim-multi-response,136,nlepstei,0,1902,word,50,2017
4,P,SPIN,multi-stim-multi-response,137,nlepstei,1,2726,word,50,2017
4,K,NKIS,multi-stim-multi-response,138,nlepstei,1,3667,nonword,50,2017
4,T,ABOT,multi-stim-multi-response,139,nlepstei,1,2455,nonword,50,2017
4,A,SAME,multi-stim-multi-response,140,nlepstei,1,3865,word,50,2017
4,L,LAKE,multi-stim-multi-response,141,nlepstei,1,2498,word,50,2017
4,S,KASM,multi-stim-multi-response,142,nlepstei,1,3229,nonword,50,2017
4,A,EAMS,multi-stim-multi-response,143,nlepstei,0,2696,nonword,50,2017
4,L,ERAL,multi-stim-multi-response,144,nlepstei,1,1933,nonword,50,2017
4,T,TKEA,multi-stim-multi-response,145,nlepstei,1,2401,nonword,50,2017
4,R,KARM,multi-stim-multi-response,146,nlepstei,0,1933,nonword,50,2017
4,G,GONE,multi-stim-multi-response,147,nlepstei,1,2364,word,50,2017
4,R,ABOR,multi-stim-multi-response,148,nlepstei,1,4031,nonword,50,2017
4,R,CTRA,multi-stim-multi-response,149,nlepstei,1,2180,nonword,50,2017
4,T,TAKE,multi-stim-multi-response,150,nlepstei,0,2107,word,50,2017
4,D,ERAD,multi-stim-multi-response,151,nlepstei,0,2936,nonword,50,2017
4,N,CTNA,multi-stim-multi-response,152,nlepstei,1,2348,nonword,50,2017
4,G,GENO,multi-stim-multi-response,153,nlepstei,0,2624,nonword,50,2017
4,C,CONE,multi-stim-multi-response,154,nlepstei,1,2821,word,50,2017
4,O,SOME,multi-stim-multi-response,155,nlepstei,0,2195,word,50,2017
4,T,BOAT,multi-stim-multi-response,156,nlepstei,1,2306,word,50,2017
4,R,BOAR,multi-stim-multi-response,157,nlepstei,0,1792,word,50,2017
4,R,CART,multi-stim-multi-response,158,nlepstei,0,2506,word,50,2017
4,L,LKEA,multi-stim-multi-response,159,nlepstei,1,2216,nonword,50,2017
4,O,EOMS,multi-stim-multi-response,160,nlepstei,0,2616,nonword,50,2017
4,K,SKIN,multi-stim-multi-response,161,nlepstei,0,2685,word,50,2017
4,D,READ,multi-stim-multi-response,162,nlepstei,1,2078,word,50,2017
4,P,NPIS,multi-stim-multi-response,163,nlepstei,1,2282,nonword,50,2017
4,N,CANT,multi-stim-multi-response,164,nlepstei,1,2064,word,50,2017
NULL,NULL,NULL,text,165,nlepstei,NULL,NULL,NULL,NULL,2017
5,N,CTNA,multi-stim-multi-response,166,nlepstei,1,4078,nonword,50,2017
5,C,CONE,multi-stim-multi-response,167,nlepstei,1,2233,word,50,2017
5,O,SOME,multi-stim-multi-response,168,nlepstei,1,2761,word,50,2017
5,R,KARM,multi-stim-multi-response,169,nlepstei,0,3738,nonword,50,2017
5,D,READ,multi-stim-multi-response,170,nlepstei,1,2476,word,50,2017
5,S,KASM,multi-stim-multi-response,171,nlepstei,0,3293,nonword,50,2017
5,T,BOAT,multi-stim-multi-response,172,nlepstei,1,2888,word,50,2017
5,L,ERAL,multi-stim-multi-response,173,nlepstei,0,2218,nonword,50,2017
5,P,NPIS,multi-stim-multi-response,174,nlepstei,1,1944,nonword,50,2017
5,G,GENO,multi-stim-multi-response,175,nlepstei,0,2139,nonword,50,2017
5,P,SPIN,multi-stim-multi-response,176,nlepstei,1,2255,word,50,2017
5,K,NKIS,multi-stim-multi-response,177,nlepstei,1,3090,nonword,50,2017
5,L,LAKE,multi-stim-multi-response,178,nlepstei,1,2499,word,50,2017
5,O,EOMS,multi-stim-multi-response,179,nlepstei,1,2231,nonword,50,2017
5,L,LKEA,multi-stim-multi-response,180,nlepstei,1,2039,nonword,50,2017
5,C,CENO,multi-stim-multi-response,181,nlepstei,1,2020,nonword,50,2017
5,R,MARK,multi-stim-multi-response,182,nlepstei,1,2635,word,50,2017
5,T,ABOT,multi-stim-multi-response,183,nlepstei,1,2116,nonword,50,2017
5,A,SAME,multi-stim-multi-response,184,nlepstei,1,3237,word,50,2017
5,R,CTRA,multi-stim-multi-response,185,nlepstei,0,2558,nonword,50,2017
5,R,ABOR,multi-stim-multi-response,186,nlepstei,0,2417,nonword,50,2017
5,D,ERAD,multi-stim-multi-response,187,nlepstei,0,2762,nonword,50,2017
5,A,EAMS,multi-stim-multi-response,188,nlepstei,1,11439,nonword,50,2017
5,R,BOAR,multi-stim-multi-response,189,nlepstei,0,10504,word,50,2017
5,T,TKEA,multi-stim-multi-response,190,nlepstei,1,2048,nonword,50,2017
5,S,MASK,multi-stim-multi-response,191,nlepstei,1,2556,word,50,2017
5,R,CART,multi-stim-multi-response,192,nlepstei,0,2349,word,50,2017
5,K,SKIN,multi-stim-multi-response,193,nlepstei,0,2521,word,50,2017
5,G,GONE,multi-stim-multi-response,194,nlepstei,0,1888,word,50,2017
5,N,CANT,multi-stim-multi-response,195,nlepstei,0,2154,word,50,2017
5,T,TAKE,multi-stim-multi-response,196,nlepstei,1,2464,word,50,2017
5,L,EAL,multi-stim-multi-response,197,nlepstei,0,1969,word,50,2017
NULL,NULL,NULL,text,198,nlepstei,NULL,NULL,NULL,NULL,2017
NULL,NULL,NULL,text,0,saaltman,NULL,NULL,NULL,NULL,2017
0,N,CANT,multi-stim-multi-response,1,saaltman,1,2184,word,32,2017
0,T,ABOT,multi-stim-multi-response,2,saaltman,1,3541,nonword,32,2017
0,R,CART,multi-stim-multi-response,3,saaltman,1,2447,word,32,2017
0,O,SOME,multi-stim-multi-response,4,saaltman,1,2377,word,32,2017
0,G,GONE,multi-stim-multi-response,5,saaltman,1,2284,word,32,2017
0,K,SKIN,multi-stim-multi-response,6,saaltman,1,2524,word,32,2017
0,C,CONE,multi-stim-multi-response,7,saaltman,1,2832,word,32,2017
0,S,MASK,multi-stim-multi-response,8,saaltman,1,2332,word,32,2017
0,D,ERAD,multi-stim-multi-response,9,saaltman,1,2571,nonword,32,2017
0,R,KARM,multi-stim-multi-response,10,saaltman,1,2452,nonword,32,2017
0,P,SPIN,multi-stim-multi-response,11,saaltman,1,2176,word,32,2017
0,A,SAME,multi-stim-multi-response,12,saaltman,1,2447,word,32,2017
0,O,EOMS,multi-stim-multi-response,13,saaltman,0,2172,nonword,32,2017
0,K,NKIS,multi-stim-multi-response,14,saaltman,1,2532,nonword,32,2017
0,L,LAKE,multi-stim-multi-response,15,saaltman,1,2147,word,32,2017
0,G,GENO,multi-stim-multi-response,16,saaltman,1,2060,nonword,32,2017
0,L,LKEA,multi-stim-multi-response,17,saaltman,1,2097,nonword,32,2017
0,R,CTRA,multi-stim-multi-response,18,saaltman,1,2047,nonword,32,2017
0,P,NPIS,multi-stim-multi-response,19,saaltman,1,2881,nonword,32,2017
0,N,CTNA,multi-stim-multi-response,20,saaltman,1,2663,nonword,32,2017
0,T,TAKE,multi-stim-multi-response,21,saaltman,1,1935,word,32,2017
0,R,MARK,multi-stim-multi-response,22,saaltman,1,2577,word,32,2017
0,L,EAL,multi-stim-multi-response,23,saaltman,1,2149,word,32,2017
0,D,READ,multi-stim-multi-response,24,saaltman,1,2194,word,32,2017
0,L,ERAL,multi-stim-multi-response,25,saaltman,1,1666,nonword,32,2017
0,C,CENO,multi-stim-multi-response,26,saaltman,1,2127,nonword,32,2017
0,T,BOAT,multi-stim-multi-response,27,saaltman,1,1853,word,32,2017
0,A,EAMS,multi-stim-multi-response,28,saaltman,1,1985,nonword,32,2017
0,S,KASM,multi-stim-multi-response,29,saaltman,1,2012,nonword,32,2017
0,R,BOAR,multi-stim-multi-response,30,saaltman,1,1894,word,32,2017
0,R,ABOR,multi-stim-multi-response,31,saaltman,0,2122,nonword,32,2017
0,T,TKEA,multi-stim-multi-response,32,saaltman,0,2519,nonword,32,2017
NULL,NULL,NULL,text,33,saaltman,NULL,NULL,NULL,NULL,2017
1,S,KASM,multi-stim-multi-response,34,saaltman,1,2195,nonword,32,2017
1,K,SKIN,multi-stim-multi-response,35,saaltman,1,1906,word,32,2017
1,R,ABOR,multi-stim-multi-response,36,saaltman,0,1934,nonword,32,2017
1,L,EAL,multi-stim-multi-response,37,saaltman,1,1711,word,32,2017
1,N,CANT,multi-stim-multi-response,38,saaltman,1,1743,word,32,2017
1,T,TKEA,multi-stim-multi-response,39,saaltman,0,2582,nonword,32,2017
1,N,CTNA,multi-stim-multi-response,40,saaltman,1,2415,nonword,32,2017
1,G,GONE,multi-stim-multi-response,41,saaltman,1,1990,word,32,2017
1,R,MARK,multi-stim-multi-response,42,saaltman,1,1930,word,32,2017
1,R,KARM,multi-stim-multi-response,43,saaltman,1,1893,nonword,32,2017
1,O,EOMS,multi-stim-multi-response,44,saaltman,1,2043,nonword,32,2017
1,C,CONE,multi-stim-multi-response,45,saaltman,1,2059,word,32,2017
1,P,SPIN,multi-stim-multi-response,46,saaltman,0,2254,word,32,2017
1,O,SOME,multi-stim-multi-response,47,saaltman,1,1976,word,32,2017
1,R,BOAR,multi-stim-multi-response,48,saaltman,1,1790,word,32,2017
1,T,TAKE,multi-stim-multi-response,49,saaltman,1,1947,word,32,2017
1,P,NPIS,multi-stim-multi-response,50,saaltman,0,1690,nonword,32,2017
1,L,LAKE,multi-stim-multi-response,51,saaltman,1,1925,word,32,2017
1,G,GENO,multi-stim-multi-response,52,saaltman,1,1788,nonword,32,2017
1,L,ERAL,multi-stim-multi-response,53,saaltman,1,1963,nonword,32,2017
1,T,BOAT,multi-stim-multi-response,54,saaltman,1,1912,word,32,2017
1,T,ABOT,multi-stim-multi-response,55,saaltman,1,1903,nonword,32,2017
1,C,CENO,multi-stim-multi-response,56,saaltman,1,1877,nonword,32,2017
1,D,READ,multi-stim-multi-response,57,saaltman,1,1812,word,32,2017
1,A,EAMS,multi-stim-multi-response,58,saaltman,1,1986,nonword,32,2017
1,K,NKIS,multi-stim-multi-response,59,saaltman,1,2069,nonword,32,2017
1,A,SAME,multi-stim-multi-response,60,saaltman,1,2118,word,32,2017
1,R,CART,multi-stim-multi-response,61,saaltman,1,2034,word,32,2017
1,S,MASK,multi-stim-multi-response,62,saaltman,0,1947,word,32,2017
1,D,ERAD,multi-stim-multi-response,63,saaltman,1,2003,nonword,32,2017
1,R,CTRA,multi-stim-multi-response,64,saaltman,1,2088,nonword,32,2017
1,L,LKEA,multi-stim-multi-response,65,saaltman,1,2139,nonword,32,2017
NULL,NULL,NULL,text,66,saaltman,NULL,NULL,NULL,NULL,2017
2,S,KASM,multi-stim-multi-response,67,saaltman,1,1996,nonword,32,2017
2,R,CART,multi-stim-multi-response,68,saaltman,1,1856,word,32,2017
2,S,MASK,multi-stim-multi-response,69,saaltman,1,1866,word,32,2017
2,L,ERAL,multi-stim-multi-response,70,saaltman,1,1580,nonword,32,2017
2,T,BOAT,multi-stim-multi-response,71,saaltman,1,2274,word,32,2017
2,T,TKEA,multi-stim-multi-response,72,saaltman,0,2656,nonword,32,2017
2,K,NKIS,multi-stim-multi-response,73,saaltman,1,1946,nonword,32,2017
2,L,EAL,multi-stim-multi-response,74,saaltman,1,1641,word,32,2017
2,L,LAKE,multi-stim-multi-response,75,saaltman,1,2469,word,32,2017
2,R,ABOR,multi-stim-multi-response,76,saaltman,1,3208,nonword,32,2017
2,D,READ,multi-stim-multi-response,77,saaltman,1,1759,word,32,2017
2,P,NPIS,multi-stim-multi-response,78,saaltman,0,2623,nonword,32,2017
2,R,BOAR,multi-stim-multi-response,79,saaltman,1,1807,word,32,2017
2,O,SOME,multi-stim-multi-response,80,saaltman,1,2216,word,32,2017
2,N,CANT,multi-stim-multi-response,81,saaltman,1,2020,word,32,2017
2,A,EAMS,multi-stim-multi-response,82,saaltman,1,1867,nonword,32,2017
2,A,SAME,multi-stim-multi-response,83,saaltman,1,2986,word,32,2017
2,G,GONE,multi-stim-multi-response,84,saaltman,1,1972,word,32,2017
2,G,GENO,multi-stim-multi-response,85,saaltman,1,3511,nonword,32,2017
2,L,LKEA,multi-stim-multi-response,86,saaltman,1,1986,nonword,32,2017
2,T,ABOT,multi-stim-multi-response,87,saaltman,1,1973,nonword,32,2017
2,C,CENO,multi-stim-multi-response,88,saaltman,1,1862,nonword,32,2017
2,R,KARM,multi-stim-multi-response,89,saaltman,1,1910,nonword,32,2017
2,R,CTRA,multi-stim-multi-response,90,saaltman,1,2385,nonword,32,2017
2,R,MARK,multi-stim-multi-response,91,saaltman,1,2195,word,32,2017
2,P,SPIN,multi-stim-multi-response,92,saaltman,1,2022,word,32,2017
2,C,CONE,multi-stim-multi-response,93,saaltman,1,1972,word,32,2017
2,T,TAKE,multi-stim-multi-response,94,saaltman,1,2043,word,32,2017
2,K,SKIN,multi-stim-multi-response,95,saaltman,1,1717,word,32,2017
2,O,EOMS,multi-stim-multi-response,96,saaltman,1,2279,nonword,32,2017
2,N,CTNA,multi-stim-multi-response,97,saaltman,1,2206,nonword,32,2017
2,D,ERAD,multi-stim-multi-response,98,saaltman,1,1782,nonword,32,2017
NULL,NULL,NULL,text,99,saaltman,NULL,NULL,NULL,NULL,2017
3,R,KARM,multi-stim-multi-response,100,saaltman,1,1971,nonword,32,2017
3,N,CANT,multi-stim-multi-response,101,saaltman,1,1982,word,32,2017
3,L,LAKE,multi-stim-multi-response,102,saaltman,1,1808,word,32,2017
3,P,SPIN,multi-stim-multi-response,103,saaltman,1,1989,word,32,2017
3,S,MASK,multi-stim-multi-response,104,saaltman,1,1808,word,32,2017
3,T,TAKE,multi-stim-multi-response,105,saaltman,0,1944,word,32,2017
3,L,ERAL,multi-stim-multi-response,106,saaltman,1,2533,nonword,32,2017
3,P,NPIS,multi-stim-multi-response,107,saaltman,1,2143,nonword,32,2017
3,R,BOAR,multi-stim-multi-response,108,saaltman,1,1655,word,32,2017
3,D,READ,multi-stim-multi-response,109,saaltman,1,1674,word,32,2017
3,O,EOMS,multi-stim-multi-response,110,saaltman,1,2911,nonword,32,2017
3,T,ABOT,multi-stim-multi-response,111,saaltman,0,1991,nonword,32,2017
3,K,SKIN,multi-stim-multi-response,112,saaltman,1,1883,word,32,2017
3,G,GENO,multi-stim-multi-response,113,saaltman,1,1832,nonword,32,2017
3,D,ERAD,multi-stim-multi-response,114,saaltman,1,1669,nonword,32,2017
3,R,CART,multi-stim-multi-response,115,saaltman,1,1660,word,32,2017
3,G,GONE,multi-stim-multi-response,116,saaltman,0,1996,word,32,2017
3,L,LKEA,multi-stim-multi-response,117,saaltman,1,2012,nonword,32,2017
3,T,TKEA,multi-stim-multi-response,118,saaltman,1,1904,nonword,32,2017
3,C,CONE,multi-stim-multi-response,119,saaltman,1,1877,word,32,2017
3,R,ABOR,multi-stim-multi-response,120,saaltman,0,1984,nonword,32,2017
3,R,MARK,multi-stim-multi-response,121,saaltman,1,2060,word,32,2017
3,O,SOME,multi-stim-multi-response,122,saaltman,1,2286,word,32,2017
3,S,KASM,multi-stim-multi-response,123,saaltman,1,2096,nonword,32,2017
3,N,CTNA,multi-stim-multi-response,124,saaltman,1,2203,nonword,32,2017
3,T,BOAT,multi-stim-multi-response,125,saaltman,1,1791,word,32,2017
3,R,CTRA,multi-stim-multi-response,126,saaltman,0,2567,nonword,32,2017
3,A,EAMS,multi-stim-multi-response,127,saaltman,1,2002,nonword,32,2017
3,K,NKIS,multi-stim-multi-response,128,saaltman,1,2056,nonword,32,2017
3,C,CENO,multi-stim-multi-response,129,saaltman,1,2161,nonword,32,2017
3,A,SAME,multi-stim-multi-response,130,saaltman,1,3417,word,32,2017
3,L,EAL,multi-stim-multi-response,131,saaltman,1,2229,word,32,2017
NULL,NULL,NULL,text,132,saaltman,NULL,NULL,NULL,NULL,2017
4,L,LAKE,multi-stim-multi-response,133,saaltman,1,1914,word,32,2017
4,T,TKEA,multi-stim-multi-response,134,saaltman,1,1881,nonword,32,2017
4,T,BOAT,multi-stim-multi-response,135,saaltman,1,1753,word,32,2017
4,D,READ,multi-stim-multi-response,136,saaltman,1,1669,word,32,2017
4,O,SOME,multi-stim-multi-response,137,saaltman,1,1870,word,32,2017
4,N,CANT,multi-stim-multi-response,138,saaltman,1,1845,word,32,2017
4,C,CONE,multi-stim-multi-response,139,saaltman,1,1438,word,32,2017
4,D,ERAD,multi-stim-multi-response,140,saaltman,1,1761,nonword,32,2017
4,P,SPIN,multi-stim-multi-response,141,saaltman,1,1962,word,32,2017
4,L,EAL,multi-stim-multi-response,142,saaltman,1,1696,word,32,2017
4,K,SKIN,multi-stim-multi-response,143,saaltman,1,2088,word,32,2017
4,R,KARM,multi-stim-multi-response,144,saaltman,1,1883,nonword,32,2017
4,T,TAKE,multi-stim-multi-response,145,saaltman,1,2171,word,32,2017
4,K,NKIS,multi-stim-multi-response,146,saaltman,1,1802,nonword,32,2017
4,O,EOMS,multi-stim-multi-response,147,saaltman,1,2070,nonword,32,2017
4,A,EAMS,multi-stim-multi-response,148,saaltman,0,3131,nonword,32,2017
4,G,GENO,multi-stim-multi-response,149,saaltman,1,1696,nonword,32,2017
4,N,CTNA,multi-stim-multi-response,150,saaltman,1,1915,nonword,32,2017
4,L,ERAL,multi-stim-multi-response,151,saaltman,1,1766,nonword,32,2017
4,R,BOAR,multi-stim-multi-response,152,saaltman,1,1636,word,32,2017
4,A,SAME,multi-stim-multi-response,153,saaltman,1,2206,word,32,2017
4,S,MASK,multi-stim-multi-response,154,saaltman,1,1663,word,32,2017
4,T,ABOT,multi-stim-multi-response,155,saaltman,1,1762,nonword,32,2017
4,R,CART,multi-stim-multi-response,156,saaltman,1,2161,word,32,2017
4,G,GONE,multi-stim-multi-response,157,saaltman,1,1821,word,32,2017
4,L,LKEA,multi-stim-multi-response,158,saaltman,1,2381,nonword,32,2017
4,C,CENO,multi-stim-multi-response,159,saaltman,1,1607,nonword,32,2017
4,P,NPIS,multi-stim-multi-response,160,saaltman,0,1997,nonword,32,2017
4,R,CTRA,multi-stim-multi-response,161,saaltman,0,2306,nonword,32,2017
4,S,KASM,multi-stim-multi-response,162,saaltman,1,1999,nonword,32,2017
4,R,ABOR,multi-stim-multi-response,163,saaltman,0,1838,nonword,32,2017
4,R,MARK,multi-stim-multi-response,164,saaltman,1,1842,word,32,2017
NULL,NULL,NULL,text,165,saaltman,NULL,NULL,NULL,NULL,2017
5,L,LKEA,multi-stim-multi-response,166,saaltman,1,1854,nonword,32,2017
5,T,TAKE,multi-stim-multi-response,167,saaltman,1,1752,word,32,2017
5,A,EAMS,multi-stim-multi-response,168,saaltman,1,1994,nonword,32,2017
5,A,SAME,multi-stim-multi-response,169,saaltman,1,1727,word,32,2017
5,L,ERAL,multi-stim-multi-response,170,saaltman,1,1572,nonword,32,2017
5,S,MASK,multi-stim-multi-response,171,saaltman,1,1641,word,32,2017
5,G,GENO,multi-stim-multi-response,172,saaltman,1,1770,nonword,32,2017
5,L,EAL,multi-stim-multi-response,173,saaltman,1,1643,word,32,2017
5,D,READ,multi-stim-multi-response,174,saaltman,0,1721,word,32,2017
5,N,CTNA,multi-stim-multi-response,175,saaltman,1,1814,nonword,32,2017
5,O,SOME,multi-stim-multi-response,176,saaltman,1,1728,word,32,2017
5,N,CANT,multi-stim-multi-response,177,saaltman,1,1647,word,32,2017
5,T,TKEA,multi-stim-multi-response,178,saaltman,1,3285,nonword,32,2017
5,G,GONE,multi-stim-multi-response,179,saaltman,1,1861,word,32,2017
5,D,ERAD,multi-stim-multi-response,180,saaltman,1,2286,nonword,32,2017
5,R,BOAR,multi-stim-multi-response,181,saaltman,1,2774,word,32,2017
5,L,LAKE,multi-stim-multi-response,182,saaltman,1,1655,word,32,2017
5,P,SPIN,multi-stim-multi-response,183,saaltman,1,2121,word,32,2017
5,P,NPIS,multi-stim-multi-response,184,saaltman,1,2140,nonword,32,2017
5,T,ABOT,multi-stim-multi-response,185,saaltman,1,1719,nonword,32,2017
5,R,CTRA,multi-stim-multi-response,186,saaltman,1,2211,nonword,32,2017
5,C,CONE,multi-stim-multi-response,187,saaltman,0,1874,word,32,2017
5,K,SKIN,multi-stim-multi-response,188,saaltman,1,1817,word,32,2017
5,O,EOMS,multi-stim-multi-response,189,saaltman,1,1829,nonword,32,2017
5,R,ABOR,multi-stim-multi-response,190,saaltman,0,1829,nonword,32,2017
5,T,BOAT,multi-stim-multi-response,191,saaltman,1,2037,word,32,2017
5,K,NKIS,multi-stim-multi-response,192,saaltman,1,3269,nonword,32,2017
5,C,CENO,multi-stim-multi-response,193,saaltman,1,1618,nonword,32,2017
5,R,KARM,multi-stim-multi-response,194,saaltman,1,1797,nonword,32,2017
5,R,CART,multi-stim-multi-response,195,saaltman,1,1685,word,32,2017
5,S,KASM,multi-stim-multi-response,196,saaltman,1,1637,nonword,32,2017
5,R,MARK,multi-stim-multi-response,197,saaltman,1,1624,word,32,2017
NULL,NULL,NULL,text,198,saaltman,NULL,NULL,NULL,NULL,2017
NULL,NULL,NULL,text,0,cfridman,NULL,NULL,NULL,NULL,2017
0,T,TAKE,multi-stim-multi-response,1,cfridman,1,2849,word,32,2017
0,N,CANT,multi-stim-multi-response,2,cfridman,1,2315,word,32,2017
0,G,GONE,multi-stim-multi-response,3,cfridman,1,2469,word,32,2017
0,O,EOMS,multi-stim-multi-response,4,cfridman,1,2126,nonword,32,2017
0,T,BOAT,multi-stim-multi-response,5,cfridman,0,2493,word,32,2017
0,R,ABOR,multi-stim-multi-response,6,cfridman,1,2381,nonword,32,2017
0,L,EAL,multi-stim-multi-response,7,cfridman,1,2046,word,32,2017
0,C,CENO,multi-stim-multi-response,8,cfridman,1,2038,nonword,32,2017
0,S,KASM,multi-stim-multi-response,9,cfridman,1,2422,nonword,32,2017
0,T,ABOT,multi-stim-multi-response,10,cfridman,1,2030,nonword,32,2017
0,O,SOME,multi-stim-multi-response,11,cfridman,1,2221,word,32,2017
0,P,NPIS,multi-stim-multi-response,12,cfridman,1,2120,nonword,32,2017
0,A,EAMS,multi-stim-multi-response,13,cfridman,1,1789,nonword,32,2017
0,L,LKEA,multi-stim-multi-response,14,cfridman,1,1742,nonword,32,2017
0,P,SPIN,multi-stim-multi-response,15,cfridman,1,2813,word,32,2017
0,R,MARK,multi-stim-multi-response,16,cfridman,1,2022,word,32,2017
0,A,SAME,multi-stim-multi-response,17,cfridman,1,1645,word,32,2017
0,N,CTNA,multi-stim-multi-response,18,cfridman,1,2431,nonword,32,2017
0,L,LAKE,multi-stim-multi-response,19,cfridman,1,2036,word,32,2017
0,R,CTRA,multi-stim-multi-response,20,cfridman,1,1917,nonword,32,2017
0,R,BOAR,multi-stim-multi-response,21,cfridman,1,1926,word,32,2017
0,C,CONE,multi-stim-multi-response,22,cfridman,1,1733,word,32,2017
0,K,SKIN,multi-stim-multi-response,23,cfridman,1,1814,word,32,2017
0,D,ERAD,multi-stim-multi-response,24,cfridman,1,1885,nonword,32,2017
0,L,ERAL,multi-stim-multi-response,25,cfridman,1,1637,nonword,32,2017
0,R,CART,multi-stim-multi-response,26,cfridman,1,1830,word,32,2017
0,G,GENO,multi-stim-multi-response,27,cfridman,1,1829,nonword,32,2017
0,R,KARM,multi-stim-multi-response,28,cfridman,1,1799,nonword,32,2017
0,D,READ,multi-stim-multi-response,29,cfridman,1,1861,word,32,2017
0,T,TKEA,multi-stim-multi-response,30,cfridman,1,1975,nonword,32,2017
0,K,NKIS,multi-stim-multi-response,31,cfridman,1,1733,nonword,32,2017
0,S,MASK,multi-stim-multi-response,32,cfridman,0,1783,word,32,2017
NULL,NULL,NULL,text,33,cfridman,NULL,NULL,NULL,NULL,2017
1,D,ERAD,multi-stim-multi-response,34,cfridman,1,1725,nonword,32,2017
1,R,CART,multi-stim-multi-response,35,cfridman,1,1830,word,32,2017
1,C,CONE,multi-stim-multi-response,36,cfridman,1,1398,word,32,2017
1,S,KASM,multi-stim-multi-response,37,cfridman,1,1670,nonword,32,2017
1,T,TKEA,multi-stim-multi-response,38,cfridman,1,1853,nonword,32,2017
1,K,NKIS,multi-stim-multi-response,39,cfridman,1,1646,nonword,32,2017
1,R,MARK,multi-stim-multi-response,40,cfridman,1,1679,word,32,2017
1,R,BOAR,multi-stim-multi-response,41,cfridman,1,1710,word,32,2017
1,G,GONE,multi-stim-multi-response,42,cfridman,1,1462,word,32,2017
1,L,EAL,multi-stim-multi-response,43,cfridman,1,1606,word,32,2017
1,T,ABOT,multi-stim-multi-response,44,cfridman,1,1934,nonword,32,2017
1,R,ABOR,multi-stim-multi-response,45,cfridman,1,1678,nonword,32,2017
1,L,ERAL,multi-stim-multi-response,46,cfridman,1,1710,nonword,32,2017
1,N,CANT,multi-stim-multi-response,47,cfridman,1,1741,word,32,2017
1,T,TAKE,multi-stim-multi-response,48,cfridman,1,1742,word,32,2017
1,N,CTNA,multi-stim-multi-response,49,cfridman,1,1783,nonword,32,2017
1,S,MASK,multi-stim-multi-response,50,cfridman,1,1582,word,32,2017
1,A,EAMS,multi-stim-multi-response,51,cfridman,1,1662,nonword,32,2017
1,L,LKEA,multi-stim-multi-response,52,cfridman,1,1653,nonword,32,2017
1,A,SAME,multi-stim-multi-response,53,cfridman,1,1815,word,32,2017
1,C,CENO,multi-stim-multi-response,54,cfridman,1,1557,nonword,32,2017
1,P,NPIS,multi-stim-multi-response,55,cfridman,1,2053,nonword,32,2017
1,R,CTRA,multi-stim-multi-response,56,cfridman,1,1886,nonword,32,2017
1,O,EOMS,multi-stim-multi-response,57,cfridman,1,1790,nonword,32,2017
1,P,SPIN,multi-stim-multi-response,58,cfridman,1,1669,word,32,2017
1,T,BOAT,multi-stim-multi-response,59,cfridman,1,1957,word,32,2017
1,O,SOME,multi-stim-multi-response,60,cfridman,1,1863,word,32,2017
1,K,SKIN,multi-stim-multi-response,61,cfridman,1,1438,word,32,2017
1,R,KARM,multi-stim-multi-response,62,cfridman,1,1702,nonword,32,2017
1,L,LAKE,multi-stim-multi-response,63,cfridman,1,1494,word,32,2017
1,D,READ,multi-stim-multi-response,64,cfridman,1,1901,word,32,2017
1,G,GENO,multi-stim-multi-response,65,cfridman,1,1472,nonword,32,2017
NULL,NULL,NULL,text,66,cfridman,NULL,NULL,NULL,NULL,2017
2,P,SPIN,multi-stim-multi-response,67,cfridman,1,1388,word,32,2017
2,O,EOMS,multi-stim-multi-response,68,cfridman,1,1446,nonword,32,2017
2,L,LAKE,multi-stim-multi-response,69,cfridman,1,1478,word,32,2017
2,A,SAME,multi-stim-multi-response,70,cfridman,1,1670,word,32,2017
2,S,KASM,multi-stim-multi-response,71,cfridman,1,1615,nonword,32,2017
2,N,CTNA,multi-stim-multi-response,72,cfridman,1,1517,nonword,32,2017
2,D,ERAD,multi-stim-multi-response,73,cfridman,1,1620,nonword,32,2017
2,T,BOAT,multi-stim-multi-response,74,cfridman,1,1853,word,32,2017
2,R,KARM,multi-stim-multi-response,75,cfridman,1,1813,nonword,32,2017
2,G,GONE,multi-stim-multi-response,76,cfridman,1,1349,word,32,2017
2,R,CART,multi-stim-multi-response,77,cfridman,1,1822,word,32,2017
2,R,CTRA,multi-stim-multi-response,78,cfridman,1,1789,nonword,32,2017
2,T,TAKE,multi-stim-multi-response,79,cfridman,1,1669,word,32,2017
2,L,ERAL,multi-stim-multi-response,80,cfridman,1,1420,nonword,32,2017
2,O,SOME,multi-stim-multi-response,81,cfridman,1,1526,word,32,2017
2,L,LKEA,multi-stim-multi-response,82,cfridman,1,2422,nonword,32,2017
2,C,CENO,multi-stim-multi-response,83,cfridman,1,1325,nonword,32,2017
2,A,EAMS,multi-stim-multi-response,84,cfridman,1,1548,nonword,32,2017
2,R,BOAR,multi-stim-multi-response,85,cfridman,0,2069,word,32,2017
2,R,ABOR,multi-stim-multi-response,86,cfridman,1,1955,nonword,32,2017
2,N,CANT,multi-stim-multi-response,87,cfridman,1,1830,word,32,2017
2,G,GENO,multi-stim-multi-response,88,cfridman,1,1372,nonword,32,2017
2,D,READ,multi-stim-multi-response,89,cfridman,1,1806,word,32,2017
2,K,NKIS,multi-stim-multi-response,90,cfridman,1,1556,nonword,32,2017
2,P,NPIS,multi-stim-multi-response,91,cfridman,1,1462,nonword,32,2017
2,S,MASK,multi-stim-multi-response,92,cfridman,1,1469,word,32,2017
2,T,TKEA,multi-stim-multi-response,93,cfridman,1,1876,nonword,32,2017
2,C,CONE,multi-stim-multi-response,94,cfridman,1,1324,word,32,2017
2,K,SKIN,multi-stim-multi-response,95,cfridman,1,1325,word,32,2017
2,R,MARK,multi-stim-multi-response,96,cfridman,1,1445,word,32,2017
2,T,ABOT,multi-stim-multi-response,97,cfridman,1,1726,nonword,32,2017
2,L,EAL,multi-stim-multi-response,98,cfridman,0,1900,word,32,2017
NULL,NULL,NULL,text,99,cfridman,NULL,NULL,NULL,NULL,2017
3,R,CART,multi-stim-multi-response,100,cfridman,1,1700,word,32,2017
3,R,ABOR,multi-stim-multi-response,101,cfridman,1,1398,nonword,32,2017
3,L,EAL,multi-stim-multi-response,102,cfridman,1,1333,word,32,2017
3,R,CTRA,multi-stim-multi-response,103,cfridman,1,1908,nonword,32,2017
3,N,CTNA,multi-stim-multi-response,104,cfridman,1,1580,nonword,32,2017
3,P,NPIS,multi-stim-multi-response,105,cfridman,1,1422,nonword,32,2017
3,C,CENO,multi-stim-multi-response,106,cfridman,1,1332,nonword,32,2017
3,T,TKEA,multi-stim-multi-response,107,cfridman,1,1686,nonword,32,2017
3,L,LAKE,multi-stim-multi-response,108,cfridman,1,1325,word,32,2017
3,N,CANT,multi-stim-multi-response,109,cfridman,1,1364,word,32,2017
3,K,NKIS,multi-stim-multi-response,110,cfridman,1,1382,nonword,32,2017
3,D,READ,multi-stim-multi-response,111,cfridman,1,1765,word,32,2017
3,L,LKEA,multi-stim-multi-response,112,cfridman,1,1470,nonword,32,2017
3,C,CONE,multi-stim-multi-response,113,cfridman,1,1364,word,32,2017
3,O,SOME,multi-stim-multi-response,114,cfridman,1,1885,word,32,2017
3,S,MASK,multi-stim-multi-response,115,cfridman,1,1308,word,32,2017
3,K,SKIN,multi-stim-multi-response,116,cfridman,1,1340,word,32,2017
3,O,EOMS,multi-stim-multi-response,117,cfridman,1,1478,nonword,32,2017
3,T,BOAT,multi-stim-multi-response,118,cfridman,1,1813,word,32,2017
3,R,KARM,multi-stim-multi-response,119,cfridman,1,2998,nonword,32,2017
3,G,GONE,multi-stim-multi-response,120,cfridman,1,1510,word,32,2017
3,R,MARK,multi-stim-multi-response,121,cfridman,1,1350,word,32,2017
3,P,SPIN,multi-stim-multi-response,122,cfridman,1,1341,word,32,2017
3,A,EAMS,multi-stim-multi-response,123,cfridman,1,1460,nonword,32,2017
3,T,ABOT,multi-stim-multi-response,124,cfridman,1,1621,nonword,32,2017
3,D,ERAD,multi-stim-multi-response,125,cfridman,1,1517,nonword,32,2017
3,R,BOAR,multi-stim-multi-response,126,cfridman,1,1918,word,32,2017
3,T,TAKE,multi-stim-multi-response,127,cfridman,1,1612,word,32,2017
3,S,KASM,multi-stim-multi-response,128,cfridman,1,1588,nonword,32,2017
3,G,GENO,multi-stim-multi-response,129,cfridman,1,1340,nonword,32,2017
3,A,SAME,multi-stim-multi-response,130,cfridman,1,1702,word,32,2017
3,L,ERAL,multi-stim-multi-response,131,cfridman,1,1965,nonword,32,2017
NULL,NULL,NULL,text,132,cfridman,NULL,NULL,NULL,NULL,2017
4,L,ERAL,multi-stim-multi-response,133,cfridman,1,1419,nonword,32,2017
4,D,ERAD,multi-stim-multi-response,134,cfridman,1,1389,nonword,32,2017
4,C,CENO,multi-stim-multi-response,135,cfridman,1,1340,nonword,32,2017
4,S,KASM,multi-stim-multi-response,136,cfridman,1,1317,nonword,32,2017
4,T,TAKE,multi-stim-multi-response,137,cfridman,1,1317,word,32,2017
4,L,LAKE,multi-stim-multi-response,138,cfridman,1,1469,word,32,2017
4,S,MASK,multi-stim-multi-response,139,cfridman,1,1316,word,32,2017
4,D,READ,multi-stim-multi-response,140,cfridman,1,1333,word,32,2017
4,P,SPIN,multi-stim-multi-response,141,cfridman,1,1285,word,32,2017
4,L,LKEA,multi-stim-multi-response,142,cfridman,1,1558,nonword,32,2017
4,K,SKIN,multi-stim-multi-response,143,cfridman,1,1317,word,32,2017
4,R,ABOR,multi-stim-multi-response,144,cfridman,0,1405,nonword,32,2017
4,T,BOAT,multi-stim-multi-response,145,cfridman,1,1892,word,32,2017
4,N,CANT,multi-stim-multi-response,146,cfridman,1,1278,word,32,2017
4,O,SOME,multi-stim-multi-response,147,cfridman,1,1469,word,32,2017
4,A,SAME,multi-stim-multi-response,148,cfridman,1,1323,word,32,2017
4,R,CTRA,multi-stim-multi-response,149,cfridman,1,1581,nonword,32,2017
4,T,ABOT,multi-stim-multi-response,150,cfridman,1,1405,nonword,32,2017
4,N,CTNA,multi-stim-multi-response,151,cfridman,1,1421,nonword,32,2017
4,R,MARK,multi-stim-multi-response,152,cfridman,1,1326,word,32,2017
4,O,EOMS,multi-stim-multi-response,153,cfridman,1,1403,nonword,32,2017
4,P,NPIS,multi-stim-multi-response,154,cfridman,1,1357,nonword,32,2017
4,G,GONE,multi-stim-multi-response,155,cfridman,1,1500,word,32,2017
4,T,TKEA,multi-stim-multi-response,156,cfridman,1,1460,nonword,32,2017
4,R,CART,multi-stim-multi-response,157,cfridman,1,1383,word,32,2017
4,A,EAMS,multi-stim-multi-response,158,cfridman,1,1379,nonword,32,2017
4,C,CONE,multi-stim-multi-response,159,cfridman,1,1444,word,32,2017
4,R,KARM,multi-stim-multi-response,160,cfridman,1,1628,nonword,32,2017
4,K,NKIS,multi-stim-multi-response,161,cfridman,1,1381,nonword,32,2017
4,G,GENO,multi-stim-multi-response,162,cfridman,1,1358,nonword,32,2017
4,R,BOAR,multi-stim-multi-response,163,cfridman,0,1365,word,32,2017
4,L,EAL,multi-stim-multi-response,164,cfridman,1,1556,word,32,2017
NULL,NULL,NULL,text,165,cfridman,NULL,NULL,NULL,NULL,2017
5,T,ABOT,multi-stim-multi-response,166,cfridman,1,1500,nonword,32,2017
5,R,ABOR,multi-stim-multi-response,167,cfridman,1,1380,nonword,32,2017
5,T,TAKE,multi-stim-multi-response,168,cfridman,1,1291,word,32,2017
5,R,CTRA,multi-stim-multi-response,169,cfridman,1,1420,nonword,32,2017
5,R,CART,multi-stim-multi-response,170,cfridman,1,1397,word,32,2017
5,L,ERAL,multi-stim-multi-response,171,cfridman,1,2100,nonword,32,2017
5,C,CONE,multi-stim-multi-response,172,cfridman,1,1315,word,32,2017
5,O,SOME,multi-stim-multi-response,173,cfridman,1,1276,word,32,2017
5,R,MARK,multi-stim-multi-response,174,cfridman,1,1371,word,32,2017
5,G,GENO,multi-stim-multi-response,175,cfridman,1,1277,nonword,32,2017
5,K,NKIS,multi-stim-multi-response,176,cfridman,1,1309,nonword,32,2017
5,P,SPIN,multi-stim-multi-response,177,cfridman,1,1362,word,32,2017
5,L,LKEA,multi-stim-multi-response,178,cfridman,1,1396,nonword,32,2017
5,D,ERAD,multi-stim-multi-response,179,cfridman,1,1468,nonword,32,2017
5,R,BOAR,multi-stim-multi-response,180,cfridman,1,1462,word,32,2017
5,A,EAMS,multi-stim-multi-response,181,cfridman,1,1646,nonword,32,2017
5,S,MASK,multi-stim-multi-response,182,cfridman,1,1347,word,32,2017
5,L,EAL,multi-stim-multi-response,183,cfridman,1,1260,word,32,2017
5,G,GONE,multi-stim-multi-response,184,cfridman,1,1212,word,32,2017
5,T,BOAT,multi-stim-multi-response,185,cfridman,1,1253,word,32,2017
5,N,CTNA,multi-stim-multi-response,186,cfridman,1,1397,nonword,32,2017
5,K,SKIN,multi-stim-multi-response,187,cfridman,1,1300,word,32,2017
5,D,READ,multi-stim-multi-response,188,cfridman,1,1373,word,32,2017
5,C,CENO,multi-stim-multi-response,189,cfridman,1,1396,nonword,32,2017
5,T,TKEA,multi-stim-multi-response,190,cfridman,1,1563,nonword,32,2017
5,R,KARM,multi-stim-multi-response,191,cfridman,1,1453,nonword,32,2017
5,N,CANT,multi-stim-multi-response,192,cfridman,1,1339,word,32,2017
5,A,SAME,multi-stim-multi-response,193,cfridman,1,1500,word,32,2017
5,P,NPIS,multi-stim-multi-response,194,cfridman,1,1407,nonword,32,2017
5,O,EOMS,multi-stim-multi-response,195,cfridman,1,1301,nonword,32,2017
5,L,LAKE,multi-stim-multi-response,196,cfridman,1,1380,word,32,2017
5,S,KASM,multi-stim-multi-response,197,cfridman,1,1836,nonword,32,2017
NULL,NULL,NULL,text,198,cfridman,NULL,NULL,NULL,NULL,2017
NULL,NULL,NULL,text,0,lcwade,NULL,NULL,NULL,NULL,2017
0,K,NKIS,multi-stim-multi-response,1,lcwade,1,6091,nonword,32,2017
0,R,ABOR,multi-stim-multi-response,2,lcwade,1,2373,nonword,32,2017
0,O,SOME,multi-stim-multi-response,3,lcwade,1,2550,word,32,2017
0,R,CTRA,multi-stim-multi-response,4,lcwade,0,5789,nonword,32,2017
0,R,BOAR,multi-stim-multi-response,5,lcwade,1,1854,word,32,2017
0,L,ERAL,multi-stim-multi-response,6,lcwade,1,1815,nonword,32,2017
0,S,KASM,multi-stim-multi-response,7,lcwade,1,3125,nonword,32,2017
0,D,READ,multi-stim-multi-response,8,lcwade,1,1878,word,32,2017
0,G,GENO,multi-stim-multi-response,9,lcwade,1,2245,nonword,32,2017
0,R,MARK,multi-stim-multi-response,10,lcwade,1,1726,word,32,2017
0,C,CONE,multi-stim-multi-response,11,lcwade,1,1757,word,32,2017
0,T,ABOT,multi-stim-multi-response,12,lcwade,1,2429,nonword,32,2017
0,K,SKIN,multi-stim-multi-response,13,lcwade,1,1925,word,32,2017
0,A,EAMS,multi-stim-multi-response,14,lcwade,1,2309,nonword,32,2017
0,A,SAME,multi-stim-multi-response,15,lcwade,1,1677,word,32,2017
0,T,TAKE,multi-stim-multi-response,16,lcwade,1,2133,word,32,2017
0,P,NPIS,multi-stim-multi-response,17,lcwade,0,4028,nonword,32,2017
0,N,CANT,multi-stim-multi-response,18,lcwade,1,2134,word,32,2017
0,T,BOAT,multi-stim-multi-response,19,lcwade,1,1894,word,32,2017
0,N,CTNA,multi-stim-multi-response,20,lcwade,1,2421,nonword,32,2017
0,O,EOMS,multi-stim-multi-response,21,lcwade,1,1894,nonword,32,2017
0,L,EAL,multi-stim-multi-response,22,lcwade,1,1453,word,32,2017
0,S,MASK,multi-stim-multi-response,23,lcwade,1,2994,word,32,2017
0,D,ERAD,multi-stim-multi-response,24,lcwade,1,1838,nonword,32,2017
0,L,LKEA,multi-stim-multi-response,25,lcwade,1,1749,nonword,32,2017
0,G,GONE,multi-stim-multi-response,26,lcwade,1,2134,word,32,2017
0,R,CART,multi-stim-multi-response,27,lcwade,0,2126,word,32,2017
0,C,CENO,multi-stim-multi-response,28,lcwade,1,1861,nonword,32,2017
0,P,SPIN,multi-stim-multi-response,29,lcwade,1,2150,word,32,2017
0,T,TKEA,multi-stim-multi-response,30,lcwade,1,1973,nonword,32,2017
0,L,LAKE,multi-stim-multi-response,31,lcwade,1,1765,word,32,2017
0,R,KARM,multi-stim-multi-response,32,lcwade,1,2645,nonword,32,2017
NULL,NULL,NULL,text,33,lcwade,NULL,NULL,NULL,NULL,2017
1,N,CANT,multi-stim-multi-response,34,lcwade,1,1989,word,32,2017
1,L,EAL,multi-stim-multi-response,35,lcwade,1,1677,word,32,2017
1,R,MARK,multi-stim-multi-response,36,lcwade,1,1781,word,32,2017
1,O,SOME,multi-stim-multi-response,37,lcwade,1,1653,word,32,2017
1,N,CTNA,multi-stim-multi-response,38,lcwade,1,1909,nonword,32,2017
1,L,LAKE,multi-stim-multi-response,39,lcwade,1,1509,word,32,2017
1,P,NPIS,multi-stim-multi-response,40,lcwade,1,2806,nonword,32,2017
1,O,EOMS,multi-stim-multi-response,41,lcwade,1,2590,nonword,32,2017
1,T,TAKE,multi-stim-multi-response,42,lcwade,1,1718,word,32,2017
1,A,SAME,multi-stim-multi-response,43,lcwade,1,1837,word,32,2017
1,L,LKEA,multi-stim-multi-response,44,lcwade,1,1677,nonword,32,2017
1,G,GENO,multi-stim-multi-response,45,lcwade,1,1789,nonword,32,2017
1,L,ERAL,multi-stim-multi-response,46,lcwade,1,1805,nonword,32,2017
1,G,GONE,multi-stim-multi-response,47,lcwade,1,1677,word,32,2017
1,T,BOAT,multi-stim-multi-response,48,lcwade,1,1837,word,32,2017
1,K,SKIN,multi-stim-multi-response,49,lcwade,1,1733,word,32,2017
1,K,NKIS,multi-stim-multi-response,50,lcwade,0,3041,nonword,32,2017
1,T,TKEA,multi-stim-multi-response,51,lcwade,1,1813,nonword,32,2017
1,C,CONE,multi-stim-multi-response,52,lcwade,1,1565,word,32,2017
1,R,CART,multi-stim-multi-response,53,lcwade,1,2005,word,32,2017
1,A,EAMS,multi-stim-multi-response,54,lcwade,1,2872,nonword,32,2017
1,S,MASK,multi-stim-multi-response,55,lcwade,1,1942,word,32,2017
1,R,KARM,multi-stim-multi-response,56,lcwade,0,2638,nonword,32,2017
1,D,ERAD,multi-stim-multi-response,57,lcwade,1,2310,nonword,32,2017
1,T,ABOT,multi-stim-multi-response,58,lcwade,1,1805,nonword,32,2017
1,D,READ,multi-stim-multi-response,59,lcwade,1,1974,word,32,2017
1,R,BOAR,multi-stim-multi-response,60,lcwade,1,1685,word,32,2017
1,C,CENO,multi-stim-multi-response,61,lcwade,1,1677,nonword,32,2017
1,S,KASM,multi-stim-multi-response,62,lcwade,1,1917,nonword,32,2017
1,R,CTRA,multi-stim-multi-response,63,lcwade,0,2093,nonword,32,2017
1,P,SPIN,multi-stim-multi-response,64,lcwade,1,1789,word,32,2017
1,R,ABOR,multi-stim-multi-response,65,lcwade,1,1821,nonword,32,2017
NULL,NULL,NULL,text,66,lcwade,NULL,NULL,NULL,NULL,2017
2,K,SKIN,multi-stim-multi-response,67,lcwade,1,1551,word,32,2017
2,R,CTRA,multi-stim-multi-response,68,lcwade,1,1981,nonword,32,2017
2,P,SPIN,multi-stim-multi-response,69,lcwade,1,1533,word,32,2017
2,T,ABOT,multi-stim-multi-response,70,lcwade,1,1781,nonword,32,2017
2,O,EOMS,multi-stim-multi-response,71,lcwade,1,2133,nonword,32,2017
2,S,KASM,multi-stim-multi-response,72,lcwade,0,2621,nonword,32,2017
2,R,BOAR,multi-stim-multi-response,73,lcwade,1,1797,word,32,2017
2,S,MASK,multi-stim-multi-response,74,lcwade,1,2669,word,32,2017
2,T,TAKE,multi-stim-multi-response,75,lcwade,1,1829,word,32,2017
2,P,NPIS,multi-stim-multi-response,76,lcwade,1,3502,nonword,32,2017
2,L,LKEA,multi-stim-multi-response,77,lcwade,1,1573,nonword,32,2017
2,C,CENO,multi-stim-multi-response,78,lcwade,1,1709,nonword,32,2017
2,A,EAMS,multi-stim-multi-response,79,lcwade,1,3557,nonword,32,2017
2,R,CART,multi-stim-multi-response,80,lcwade,1,1814,word,32,2017
2,T,TKEA,multi-stim-multi-response,81,lcwade,1,1829,nonword,32,2017
2,G,GENO,multi-stim-multi-response,82,lcwade,1,1565,nonword,32,2017
2,L,ERAL,multi-stim-multi-response,83,lcwade,1,1805,nonword,32,2017
2,D,ERAD,multi-stim-multi-response,84,lcwade,1,2278,nonword,32,2017
2,G,GONE,multi-stim-multi-response,85,lcwade,1,1630,word,32,2017
2,O,SOME,multi-stim-multi-response,86,lcwade,1,1677,word,32,2017
2,N,CANT,multi-stim-multi-response,87,lcwade,1,2029,word,32,2017
2,L,EAL,multi-stim-multi-response,88,lcwade,1,1596,word,32,2017
2,K,NKIS,multi-stim-multi-response,89,lcwade,1,2037,nonword,32,2017
2,C,CONE,multi-stim-multi-response,90,lcwade,1,1669,word,32,2017
2,R,ABOR,multi-stim-multi-response,91,lcwade,1,1838,nonword,32,2017
2,N,CTNA,multi-stim-multi-response,92,lcwade,0,2029,nonword,32,2017
2,A,SAME,multi-stim-multi-response,93,lcwade,1,1949,word,32,2017
2,D,READ,multi-stim-multi-response,94,lcwade,1,1725,word,32,2017
2,R,MARK,multi-stim-multi-response,95,lcwade,1,1933,word,32,2017
2,T,BOAT,multi-stim-multi-response,96,lcwade,1,1925,word,32,2017
2,L,LAKE,multi-stim-multi-response,97,lcwade,1,1580,word,32,2017
2,R,KARM,multi-stim-multi-response,98,lcwade,1,1814,nonword,32,2017
NULL,NULL,NULL,text,99,lcwade,NULL,NULL,NULL,NULL,2017
3,K,SKIN,multi-stim-multi-response,100,lcwade,1,1453,word,32,2017
3,T,BOAT,multi-stim-multi-response,101,lcwade,1,1596,word,32,2017
3,C,CENO,multi-stim-multi-response,102,lcwade,1,1701,nonword,32,2017
3,T,ABOT,multi-stim-multi-response,103,lcwade,1,1525,nonword,32,2017
3,D,READ,multi-stim-multi-response,104,lcwade,1,1534,word,32,2017
3,R,CART,multi-stim-multi-response,105,lcwade,1,1933,word,32,2017
3,A,SAME,multi-stim-multi-response,106,lcwade,1,1677,word,32,2017
3,K,NKIS,multi-stim-multi-response,107,lcwade,1,2029,nonword,32,2017
3,O,EOMS,multi-stim-multi-response,108,lcwade,1,2437,nonword,32,2017
3,L,ERAL,multi-stim-multi-response,109,lcwade,1,1725,nonword,32,2017
3,R,BOAR,multi-stim-multi-response,110,lcwade,1,1821,word,32,2017
3,A,EAMS,multi-stim-multi-response,111,lcwade,1,1940,nonword,32,2017
3,C,CONE,multi-stim-multi-response,112,lcwade,1,1524,word,32,2017
3,O,SOME,multi-stim-multi-response,113,lcwade,1,1652,word,32,2017
3,R,MARK,multi-stim-multi-response,114,lcwade,1,1669,word,32,2017
3,N,CANT,multi-stim-multi-response,115,lcwade,1,1678,word,32,2017
3,G,GONE,multi-stim-multi-response,116,lcwade,1,1693,word,32,2017
3,L,LAKE,multi-stim-multi-response,117,lcwade,1,1454,word,32,2017
3,L,EAL,multi-stim-multi-response,118,lcwade,1,1485,word,32,2017
3,D,ERAD,multi-stim-multi-response,119,lcwade,0,1628,nonword,32,2017
3,R,CTRA,multi-stim-multi-response,120,lcwade,1,1765,nonword,32,2017
3,G,GENO,multi-stim-multi-response,121,lcwade,1,1606,nonword,32,2017
3,R,KARM,multi-stim-multi-response,122,lcwade,1,1742,nonword,32,2017
3,T,TKEA,multi-stim-multi-response,123,lcwade,1,1605,nonword,32,2017
3,S,KASM,multi-stim-multi-response,124,lcwade,1,1653,nonword,32,2017
3,P,NPIS,multi-stim-multi-response,125,lcwade,1,2181,nonword,32,2017
3,L,LKEA,multi-stim-multi-response,126,lcwade,1,1548,nonword,32,2017
3,S,MASK,multi-stim-multi-response,127,lcwade,1,1884,word,32,2017
3,P,SPIN,multi-stim-multi-response,128,lcwade,1,1812,word,32,2017
3,N,CTNA,multi-stim-multi-response,129,lcwade,1,2061,nonword,32,2017
3,R,ABOR,multi-stim-multi-response,130,lcwade,1,1717,nonword,32,2017
3,T,TAKE,multi-stim-multi-response,131,lcwade,1,1565,word,32,2017
NULL,NULL,NULL,text,132,lcwade,NULL,NULL,NULL,NULL,2017
4,R,CART,multi-stim-multi-response,133,lcwade,1,1903,word,32,2017
4,K,NKIS,multi-stim-multi-response,134,lcwade,1,1780,nonword,32,2017
4,P,NPIS,multi-stim-multi-response,135,lcwade,1,1556,nonword,32,2017
4,R,BOAR,multi-stim-multi-response,136,lcwade,1,1420,word,32,2017
4,K,SKIN,multi-stim-multi-response,137,lcwade,1,1572,word,32,2017
4,T,TKEA,multi-stim-multi-response,138,lcwade,1,1588,nonword,32,2017
4,T,ABOT,multi-stim-multi-response,139,lcwade,1,1741,nonword,32,2017
4,R,ABOR,multi-stim-multi-response,140,lcwade,1,1476,nonword,32,2017
4,L,LAKE,multi-stim-multi-response,141,lcwade,1,1533,word,32,2017
4,L,LKEA,multi-stim-multi-response,142,lcwade,1,1461,nonword,32,2017
4,N,CTNA,multi-stim-multi-response,143,lcwade,1,2069,nonword,32,2017
4,R,KARM,multi-stim-multi-response,144,lcwade,1,1789,nonword,32,2017
4,T,TAKE,multi-stim-multi-response,145,lcwade,1,1621,word,32,2017
4,C,CENO,multi-stim-multi-response,146,lcwade,1,1556,nonword,32,2017
4,G,GENO,multi-stim-multi-response,147,lcwade,1,1716,nonword,32,2017
4,G,GONE,multi-stim-multi-response,148,lcwade,1,1461,word,32,2017
4,D,READ,multi-stim-multi-response,149,lcwade,1,1803,word,32,2017
4,P,SPIN,multi-stim-multi-response,150,lcwade,1,1676,word,32,2017
4,A,SAME,multi-stim-multi-response,151,lcwade,1,1797,word,32,2017
4,N,CANT,multi-stim-multi-response,152,lcwade,1,1869,word,32,2017
4,R,CTRA,multi-stim-multi-response,153,lcwade,0,2932,nonword,32,2017
4,T,BOAT,multi-stim-multi-response,154,lcwade,1,3038,word,32,2017
4,R,MARK,multi-stim-multi-response,155,lcwade,1,1892,word,32,2017
4,L,EAL,multi-stim-multi-response,156,lcwade,1,1485,word,32,2017
4,L,ERAL,multi-stim-multi-response,157,lcwade,1,1653,nonword,32,2017
4,O,SOME,multi-stim-multi-response,158,lcwade,1,1917,word,32,2017
4,S,KASM,multi-stim-multi-response,159,lcwade,0,1845,nonword,32,2017
4,C,CONE,multi-stim-multi-response,160,lcwade,1,1789,word,32,2017
4,D,ERAD,multi-stim-multi-response,161,lcwade,1,1701,nonword,32,2017
4,O,EOMS,multi-stim-multi-response,162,lcwade,1,1644,nonword,32,2017
4,A,EAMS,multi-stim-multi-response,163,lcwade,0,2845,nonword,32,2017
4,S,MASK,multi-stim-multi-response,164,lcwade,1,1805,word,32,2017
NULL,NULL,NULL,text,165,lcwade,NULL,NULL,NULL,NULL,2017
5,S,KASM,multi-stim-multi-response,166,lcwade,1,1557,nonword,32,2017
5,P,NPIS,multi-stim-multi-response,167,lcwade,1,1693,nonword,32,2017
5,T,BOAT,multi-stim-multi-response,168,lcwade,1,1493,word,32,2017
5,K,NKIS,multi-stim-multi-response,169,lcwade,1,1556,nonword,32,2017
5,D,READ,multi-stim-multi-response,170,lcwade,1,1485,word,32,2017
5,A,SAME,multi-stim-multi-response,171,lcwade,1,1860,word,32,2017
5,N,CTNA,multi-stim-multi-response,172,lcwade,0,2904,nonword,32,2017
5,R,MARK,multi-stim-multi-response,173,lcwade,1,1804,word,32,2017
5,P,SPIN,multi-stim-multi-response,174,lcwade,1,1508,word,32,2017
5,A,EAMS,multi-stim-multi-response,175,lcwade,1,2397,nonword,32,2017
5,R,CTRA,multi-stim-multi-response,176,lcwade,1,2429,nonword,32,2017
5,T,TAKE,multi-stim-multi-response,177,lcwade,1,1629,word,32,2017
5,L,EAL,multi-stim-multi-response,178,lcwade,1,1724,word,32,2017
5,C,CENO,multi-stim-multi-response,179,lcwade,1,1684,nonword,32,2017
5,N,CANT,multi-stim-multi-response,180,lcwade,1,1508,word,32,2017
5,L,LAKE,multi-stim-multi-response,181,lcwade,1,1500,word,32,2017
5,L,ERAL,multi-stim-multi-response,182,lcwade,1,1668,nonword,32,2017
5,L,LKEA,multi-stim-multi-response,183,lcwade,1,1677,nonword,32,2017
5,R,ABOR,multi-stim-multi-response,184,lcwade,1,1493,nonword,32,2017
5,K,SKIN,multi-stim-multi-response,185,lcwade,1,1428,word,32,2017
5,O,EOMS,multi-stim-multi-response,186,lcwade,1,1765,nonword,32,2017
5,R,KARM,multi-stim-multi-response,187,lcwade,1,1797,nonword,32,2017
5,R,BOAR,multi-stim-multi-response,188,lcwade,1,1587,word,32,2017
5,G,GENO,multi-stim-multi-response,189,lcwade,1,1612,nonword,32,2017
5,O,SOME,multi-stim-multi-response,190,lcwade,1,1652,word,32,2017
5,G,GONE,multi-stim-multi-response,191,lcwade,1,1652,word,32,2017
5,T,ABOT,multi-stim-multi-response,192,lcwade,1,1692,nonword,32,2017
5,C,CONE,multi-stim-multi-response,193,lcwade,1,1676,word,32,2017
5,D,ERAD,multi-stim-multi-response,194,lcwade,1,1845,nonword,32,2017
5,R,CART,multi-stim-multi-response,195,lcwade,1,1604,word,32,2017
5,S,MASK,multi-stim-multi-response,196,lcwade,1,1614,word,32,2017
5,T,TKEA,multi-stim-multi-response,197,lcwade,1,1772,nonword,32,2017
NULL,NULL,NULL,text,198,lcwade,NULL,NULL,NULL,NULL,2017
NULL,NULL,NULL,text,0,atimothy,NULL,NULL,NULL,NULL,2017
0,N,CANT,multi-stim-multi-response,1,atimothy,1,3678,word,32,2017
0,L,LKEA,multi-stim-multi-response,2,atimothy,1,5652,nonword,32,2017
0,T,BOAT,multi-stim-multi-response,3,atimothy,1,3936,word,32,2017
0,K,SKIN,multi-stim-multi-response,4,atimothy,1,2715,word,32,2017
0,P,NPIS,multi-stim-multi-response,5,atimothy,1,5666,nonword,32,2017
0,R,CTRA,multi-stim-multi-response,6,atimothy,1,3362,nonword,32,2017
0,G,GENO,multi-stim-multi-response,7,atimothy,1,3632,nonword,32,2017
0,L,EAL,multi-stim-multi-response,8,atimothy,1,2506,word,32,2017
0,N,CTNA,multi-stim-multi-response,9,atimothy,1,6627,nonword,32,2017
0,D,READ,multi-stim-multi-response,10,atimothy,1,3017,word,32,2017
0,R,BOAR,multi-stim-multi-response,11,atimothy,1,2662,word,32,2017
0,T,ABOT,multi-stim-multi-response,12,atimothy,0,6892,nonword,32,2017
0,S,KASM,multi-stim-multi-response,13,atimothy,1,3094,nonword,32,2017
0,R,MARK,multi-stim-multi-response,14,atimothy,1,3043,word,32,2017
0,R,KARM,multi-stim-multi-response,15,atimothy,1,2413,nonword,32,2017
0,C,CONE,multi-stim-multi-response,16,atimothy,1,2126,word,32,2017
0,P,SPIN,multi-stim-multi-response,17,atimothy,1,2406,word,32,2017
0,C,CENO,multi-stim-multi-response,18,atimothy,1,2425,nonword,32,2017
0,K,NKIS,multi-stim-multi-response,19,atimothy,1,2780,nonword,32,2017
0,L,ERAL,multi-stim-multi-response,20,atimothy,1,2754,nonword,32,2017
0,R,CART,multi-stim-multi-response,21,atimothy,1,2519,word,32,2017
0,O,EOMS,multi-stim-multi-response,22,atimothy,1,2448,nonword,32,2017
0,D,ERAD,multi-stim-multi-response,23,atimothy,1,2542,nonword,32,2017
0,S,MASK,multi-stim-multi-response,24,atimothy,1,3874,word,32,2017
0,L,LAKE,multi-stim-multi-response,25,atimothy,1,3072,word,32,2017
0,R,ABOR,multi-stim-multi-response,26,atimothy,1,2486,nonword,32,2017
0,T,TKEA,multi-stim-multi-response,27,atimothy,1,2749,nonword,32,2017
0,T,TAKE,multi-stim-multi-response,28,atimothy,1,2236,word,32,2017
0,O,SOME,multi-stim-multi-response,29,atimothy,1,7091,word,32,2017
0,G,GONE,multi-stim-multi-response,30,atimothy,1,2512,word,32,2017
0,A,SAME,multi-stim-multi-response,31,atimothy,1,2916,word,32,2017
0,A,EAMS,multi-stim-multi-response,32,atimothy,1,2460,nonword,32,2017
NULL,NULL,NULL,text,33,atimothy,NULL,NULL,NULL,NULL,2017
1,N,CANT,multi-stim-multi-response,34,atimothy,1,2299,word,32,2017
1,R,CART,multi-stim-multi-response,35,atimothy,1,2216,word,32,2017
1,L,LAKE,multi-stim-multi-response,36,atimothy,1,2590,word,32,2017
1,T,TAKE,multi-stim-multi-response,37,atimothy,1,2064,word,32,2017
1,R,MARK,multi-stim-multi-response,38,atimothy,1,2326,word,32,2017
1,N,CTNA,multi-stim-multi-response,39,atimothy,1,2778,nonword,32,2017
1,R,ABOR,multi-stim-multi-response,40,atimothy,1,2202,nonword,32,2017
1,A,SAME,multi-stim-multi-response,41,atimothy,1,2527,word,32,2017
1,G,GENO,multi-stim-multi-response,42,atimothy,1,2176,nonword,32,2017
1,C,CONE,multi-stim-multi-response,43,atimothy,1,1854,word,32,2017
1,A,EAMS,multi-stim-multi-response,44,atimothy,1,3200,nonword,32,2017
1,C,CENO,multi-stim-multi-response,45,atimothy,1,1916,nonword,32,2017
1,K,NKIS,multi-stim-multi-response,46,atimothy,1,2148,nonword,32,2017
1,P,NPIS,multi-stim-multi-response,47,atimothy,1,2371,nonword,32,2017
1,S,KASM,multi-stim-multi-response,48,atimothy,1,2292,nonword,32,2017
1,L,EAL,multi-stim-multi-response,49,atimothy,1,2185,word,32,2017
1,K,SKIN,multi-stim-multi-response,50,atimothy,1,2358,word,32,2017
1,L,LKEA,multi-stim-multi-response,51,atimothy,1,2018,nonword,32,2017
1,R,KARM,multi-stim-multi-response,52,atimothy,1,2786,nonword,32,2017
1,S,MASK,multi-stim-multi-response,53,atimothy,1,2319,word,32,2017
1,R,CTRA,multi-stim-multi-response,54,atimothy,0,2388,nonword,32,2017
1,L,ERAL,multi-stim-multi-response,55,atimothy,1,2231,nonword,32,2017
1,D,ERAD,multi-stim-multi-response,56,atimothy,1,2293,nonword,32,2017
1,R,BOAR,multi-stim-multi-response,57,atimothy,1,2235,word,32,2017
1,T,TKEA,multi-stim-multi-response,58,atimothy,1,2241,nonword,32,2017
1,T,BOAT,multi-stim-multi-response,59,atimothy,1,2661,word,32,2017
1,P,SPIN,multi-stim-multi-response,60,atimothy,1,2208,word,32,2017
1,T,ABOT,multi-stim-multi-response,61,atimothy,1,2175,nonword,32,2017
1,O,SOME,multi-stim-multi-response,62,atimothy,1,2124,word,32,2017
1,O,EOMS,multi-stim-multi-response,63,atimothy,1,2529,nonword,32,2017
1,D,READ,multi-stim-multi-response,64,atimothy,1,2231,word,32,2017
1,G,GONE,multi-stim-multi-response,65,atimothy,1,2882,word,32,2017
NULL,NULL,NULL,text,66,atimothy,NULL,NULL,NULL,NULL,2017
2,R,BOAR,multi-stim-multi-response,67,atimothy,1,2118,word,32,2017
2,L,LKEA,multi-stim-multi-response,68,atimothy,1,2125,nonword,32,2017
2,P,NPIS,multi-stim-multi-response,69,atimothy,1,2098,nonword,32,2017
2,A,SAME,multi-stim-multi-response,70,atimothy,1,2510,word,32,2017
2,S,KASM,multi-stim-multi-response,71,atimothy,1,2533,nonword,32,2017
2,T,ABOT,multi-stim-multi-response,72,atimothy,1,2196,nonword,32,2017
2,L,EAL,multi-stim-multi-response,73,atimothy,1,2070,word,32,2017
2,G,GENO,multi-stim-multi-response,74,atimothy,1,2280,nonword,32,2017
2,L,LAKE,multi-stim-multi-response,75,atimothy,1,1801,word,32,2017
2,C,CENO,multi-stim-multi-response,76,atimothy,1,2050,nonword,32,2017
2,A,EAMS,multi-stim-multi-response,77,atimothy,1,2832,nonword,32,2017
2,R,ABOR,multi-stim-multi-response,78,atimothy,1,2306,nonword,32,2017
2,N,CANT,multi-stim-multi-response,79,atimothy,1,2529,word,32,2017
2,K,NKIS,multi-stim-multi-response,80,atimothy,1,2290,nonword,32,2017
2,G,GONE,multi-stim-multi-response,81,atimothy,1,2669,word,32,2017
2,L,ERAL,multi-stim-multi-response,82,atimothy,1,2052,nonword,32,2017
2,D,READ,multi-stim-multi-response,83,atimothy,1,2196,word,32,2017
2,O,EOMS,multi-stim-multi-response,84,atimothy,1,2076,nonword,32,2017
2,C,CONE,multi-stim-multi-response,85,atimothy,1,1968,word,32,2017
2,D,ERAD,multi-stim-multi-response,86,atimothy,1,2080,nonword,32,2017
2,R,CTRA,multi-stim-multi-response,87,atimothy,1,2820,nonword,32,2017
2,T,TKEA,multi-stim-multi-response,88,atimothy,1,2350,nonword,32,2017
2,K,SKIN,multi-stim-multi-response,89,atimothy,1,2136,word,32,2017
2,R,KARM,multi-stim-multi-response,90,atimothy,1,2375,nonword,32,2017
2,P,SPIN,multi-stim-multi-response,91,atimothy,1,2252,word,32,2017
2,R,MARK,multi-stim-multi-response,92,atimothy,1,2649,word,32,2017
2,N,CTNA,multi-stim-multi-response,93,atimothy,1,2468,nonword,32,2017
2,R,CART,multi-stim-multi-response,94,atimothy,0,6059,word,32,2017
2,S,MASK,multi-stim-multi-response,95,atimothy,1,2378,word,32,2017
2,O,SOME,multi-stim-multi-response,96,atimothy,1,2176,word,32,2017
2,T,BOAT,multi-stim-multi-response,97,atimothy,1,2242,word,32,2017
2,T,TAKE,multi-stim-multi-response,98,atimothy,1,2214,word,32,2017
NULL,NULL,NULL,text,99,atimothy,NULL,NULL,NULL,NULL,2017
3,T,TAKE,multi-stim-multi-response,100,atimothy,1,1934,word,32,2017
3,L,LAKE,multi-stim-multi-response,101,atimothy,1,1996,word,32,2017
3,C,CONE,multi-stim-multi-response,102,atimothy,1,2021,word,32,2017
3,G,GONE,multi-stim-multi-response,103,atimothy,1,2199,word,32,2017
3,S,MASK,multi-stim-multi-response,104,atimothy,1,2738,word,32,2017
3,L,LKEA,multi-stim-multi-response,105,atimothy,1,1984,nonword,32,2017
3,C,CENO,multi-stim-multi-response,106,atimothy,1,1784,nonword,32,2017
3,A,SAME,multi-stim-multi-response,107,atimothy,1,2014,word,32,2017
3,R,ABOR,multi-stim-multi-response,108,atimothy,1,2261,nonword,32,2017
3,S,KASM,multi-stim-multi-response,109,atimothy,1,2083,nonword,32,2017
3,K,NKIS,multi-stim-multi-response,110,atimothy,1,2160,nonword,32,2017
3,T,ABOT,multi-stim-multi-response,111,atimothy,1,2118,nonword,32,2017
3,O,SOME,multi-stim-multi-response,112,atimothy,1,2135,word,32,2017
3,R,KARM,multi-stim-multi-response,113,atimothy,1,1986,nonword,32,2017
3,L,EAL,multi-stim-multi-response,114,atimothy,1,2028,word,32,2017
3,R,CART,multi-stim-multi-response,115,atimothy,1,2057,word,32,2017
3,A,EAMS,multi-stim-multi-response,116,atimothy,1,2118,nonword,32,2017
3,G,GENO,multi-stim-multi-response,117,atimothy,0,2273,nonword,32,2017
3,P,SPIN,multi-stim-multi-response,118,atimothy,1,2117,word,32,2017
3,P,NPIS,multi-stim-multi-response,119,atimothy,1,1973,nonword,32,2017
3,D,READ,multi-stim-multi-response,120,atimothy,1,3288,word,32,2017
3,L,ERAL,multi-stim-multi-response,121,atimothy,1,2048,nonword,32,2017
3,R,BOAR,multi-stim-multi-response,122,atimothy,1,1994,word,32,2017
3,N,CANT,multi-stim-multi-response,123,atimothy,1,2680,word,32,2017
3,K,SKIN,multi-stim-multi-response,124,atimothy,1,2041,word,32,2017
3,D,ERAD,multi-stim-multi-response,125,atimothy,1,2226,nonword,32,2017
3,N,CTNA,multi-stim-multi-response,126,atimothy,1,3168,nonword,32,2017
3,T,BOAT,multi-stim-multi-response,127,atimothy,1,2202,word,32,2017
3,O,EOMS,multi-stim-multi-response,128,atimothy,1,2686,nonword,32,2017
3,T,TKEA,multi-stim-multi-response,129,atimothy,1,8429,nonword,32,2017
3,R,CTRA,multi-stim-multi-response,130,atimothy,0,4672,nonword,32,2017
3,R,MARK,multi-stim-multi-response,131,atimothy,1,2282,word,32,2017
NULL,NULL,NULL,text,132,atimothy,NULL,NULL,NULL,NULL,2017
4,T,TKEA,multi-stim-multi-response,133,atimothy,1,2042,nonword,32,2017
4,O,EOMS,multi-stim-multi-response,134,atimothy,1,2141,nonword,32,2017
4,P,NPIS,multi-stim-multi-response,135,atimothy,1,2154,nonword,32,2017
4,D,READ,multi-stim-multi-response,136,atimothy,1,1984,word,32,2017
4,T,ABOT,multi-stim-multi-response,137,atimothy,1,1972,nonword,32,2017
4,L,LAKE,multi-stim-multi-response,138,atimothy,1,1893,word,32,2017
4,K,NKIS,multi-stim-multi-response,139,atimothy,1,1892,nonword,32,2017
4,P,SPIN,multi-stim-multi-response,140,atimothy,1,2146,word,32,2017
4,N,CANT,multi-stim-multi-response,141,atimothy,1,2225,word,32,2017
4,G,GENO,multi-stim-multi-response,142,atimothy,1,2012,nonword,32,2017
4,O,SOME,multi-stim-multi-response,143,atimothy,1,1822,word,32,2017
4,L,ERAL,multi-stim-multi-response,144,atimothy,1,1884,nonword,32,2017
4,L,LKEA,multi-stim-multi-response,145,atimothy,1,1698,nonword,32,2017
4,K,SKIN,multi-stim-multi-response,146,atimothy,1,2046,word,32,2017
4,S,KASM,multi-stim-multi-response,147,atimothy,1,2092,nonword,32,2017
4,R,BOAR,multi-stim-multi-response,148,atimothy,1,2079,word,32,2017
4,C,CONE,multi-stim-multi-response,149,atimothy,1,1484,word,32,2017
4,L,EAL,multi-stim-multi-response,150,atimothy,1,1713,word,32,2017
4,R,ABOR,multi-stim-multi-response,151,atimothy,1,2092,nonword,32,2017
4,C,CENO,multi-stim-multi-response,152,atimothy,1,1531,nonword,32,2017
4,T,TAKE,multi-stim-multi-response,153,atimothy,1,2096,word,32,2017
4,A,EAMS,multi-stim-multi-response,154,atimothy,1,1925,nonword,32,2017
4,S,MASK,multi-stim-multi-response,155,atimothy,1,2026,word,32,2017
4,R,CART,multi-stim-multi-response,156,atimothy,1,2004,word,32,2017
4,A,SAME,multi-stim-multi-response,157,atimothy,1,1954,word,32,2017
4,N,CTNA,multi-stim-multi-response,158,atimothy,1,2274,nonword,32,2017
4,T,BOAT,multi-stim-multi-response,159,atimothy,1,1912,word,32,2017
4,D,ERAD,multi-stim-multi-response,160,atimothy,1,1897,nonword,32,2017
4,R,CTRA,multi-stim-multi-response,161,atimothy,1,3668,nonword,32,2017
4,R,MARK,multi-stim-multi-response,162,atimothy,1,2154,word,32,2017
4,R,KARM,multi-stim-multi-response,163,atimothy,1,2356,nonword,32,2017
4,G,GONE,multi-stim-multi-response,164,atimothy,1,1978,word,32,2017
NULL,NULL,NULL,text,165,atimothy,NULL,NULL,NULL,NULL,2017
5,R,BOAR,multi-stim-multi-response,166,atimothy,1,1778,word,32,2017
5,L,LKEA,multi-stim-multi-response,167,atimothy,1,1772,nonword,32,2017
5,P,NPIS,multi-stim-multi-response,168,atimothy,1,2006,nonword,32,2017
5,L,EAL,multi-stim-multi-response,169,atimothy,1,1725,word,32,2017
5,L,LAKE,multi-stim-multi-response,170,atimothy,1,1754,word,32,2017
5,P,SPIN,multi-stim-multi-response,171,atimothy,1,1744,word,32,2017
5,A,EAMS,multi-stim-multi-response,172,atimothy,1,1859,nonword,32,2017
5,S,KASM,multi-stim-multi-response,173,atimothy,1,2130,nonword,32,2017
5,D,ERAD,multi-stim-multi-response,174,atimothy,1,1973,nonword,32,2017
5,K,NKIS,multi-stim-multi-response,175,atimothy,1,1680,nonword,32,2017
5,L,ERAL,multi-stim-multi-response,176,atimothy,1,2085,nonword,32,2017
5,T,TAKE,multi-stim-multi-response,177,atimothy,1,2016,word,32,2017
5,O,SOME,multi-stim-multi-response,178,atimothy,1,1694,word,32,2017
5,C,CENO,multi-stim-multi-response,179,atimothy,1,1849,nonword,32,2017
5,N,CANT,multi-stim-multi-response,180,atimothy,1,2004,word,32,2017
5,K,SKIN,multi-stim-multi-response,181,atimothy,1,1649,word,32,2017
5,D,READ,multi-stim-multi-response,182,atimothy,1,2031,word,32,2017
5,O,EOMS,multi-stim-multi-response,183,atimothy,1,1778,nonword,32,2017
5,C,CONE,multi-stim-multi-response,184,atimothy,1,1462,word,32,2017
5,R,MARK,multi-stim-multi-response,185,atimothy,1,1983,word,32,2017
5,T,ABOT,multi-stim-multi-response,186,atimothy,1,1968,nonword,32,2017
5,R,KARM,multi-stim-multi-response,187,atimothy,1,1955,nonword,32,2017
5,R,CART,multi-stim-multi-response,188,atimothy,1,1899,word,32,2017
5,G,GONE,multi-stim-multi-response,189,atimothy,1,1954,word,32,2017
5,T,BOAT,multi-stim-multi-response,190,atimothy,1,1917,word,32,2017
5,G,GENO,multi-stim-multi-response,191,atimothy,1,1934,nonword,32,2017
5,S,MASK,multi-stim-multi-response,192,atimothy,1,2246,word,32,2017
5,R,ABOR,multi-stim-multi-response,193,atimothy,1,1845,nonword,32,2017
5,T,TKEA,multi-stim-multi-response,194,atimothy,1,2092,nonword,32,2017
5,A,SAME,multi-stim-multi-response,195,atimothy,1,2168,word,32,2017
5,R,CTRA,multi-stim-multi-response,196,atimothy,1,2218,nonword,32,2017
5,N,CTNA,multi-stim-multi-response,197,atimothy,0,2390,nonword,32,2017
NULL,NULL,NULL,text,198,atimothy,NULL,NULL,NULL,NULL,2017
NULL,NULL,NULL,text,0,josdougl,NULL,NULL,NULL,NULL,2017
0,R,CART,multi-stim-multi-response,1,josdougl,1,2828,word,150,2017
0,A,EAMS,multi-stim-multi-response,2,josdougl,1,2441,nonword,150,2017
0,N,CTNA,multi-stim-multi-response,3,josdougl,1,2672,nonword,150,2017
0,D,READ,multi-stim-multi-response,4,josdougl,1,2381,word,150,2017
0,S,MASK,multi-stim-multi-response,5,josdougl,0,3710,word,150,2017
0,O,EOMS,multi-stim-multi-response,6,josdougl,1,2136,nonword,150,2017
0,P,SPIN,multi-stim-multi-response,7,josdougl,1,2049,word,150,2017
0,T,BOAT,multi-stim-multi-response,8,josdougl,1,2389,word,150,2017
0,L,LKEA,multi-stim-multi-response,9,josdougl,1,1899,nonword,150,2017
0,R,KARM,multi-stim-multi-response,10,josdougl,1,2462,nonword,150,2017
0,R,BOAR,multi-stim-multi-response,11,josdougl,0,2798,word,150,2017
0,L,ERAL,multi-stim-multi-response,12,josdougl,1,2228,nonword,150,2017
0,G,GENO,multi-stim-multi-response,13,josdougl,1,2177,nonword,150,2017
0,K,SKIN,multi-stim-multi-response,14,josdougl,1,1919,word,150,2017
0,L,EAL,multi-stim-multi-response,15,josdougl,1,1873,word,150,2017
0,O,SOME,multi-stim-multi-response,16,josdougl,1,1931,word,150,2017
0,P,NPIS,multi-stim-multi-response,17,josdougl,0,3628,nonword,150,2017
0,C,CONE,multi-stim-multi-response,18,josdougl,1,2092,word,150,2017
0,T,TAKE,multi-stim-multi-response,19,josdougl,1,2153,word,150,2017
0,A,SAME,multi-stim-multi-response,20,josdougl,1,2010,word,150,2017
0,S,KASM,multi-stim-multi-response,21,josdougl,1,2027,nonword,150,2017
0,D,ERAD,multi-stim-multi-response,22,josdougl,1,2153,nonword,150,2017
0,R,ABOR,multi-stim-multi-response,23,josdougl,1,2190,nonword,150,2017
0,G,GONE,multi-stim-multi-response,24,josdougl,1,1925,word,150,2017
0,C,CENO,multi-stim-multi-response,25,josdougl,1,2118,nonword,150,2017
0,N,CANT,multi-stim-multi-response,26,josdougl,1,2018,word,150,2017
0,T,TKEA,multi-stim-multi-response,27,josdougl,1,1992,nonword,150,2017
0,R,MARK,multi-stim-multi-response,28,josdougl,1,2318,word,150,2017
0,L,LAKE,multi-stim-multi-response,29,josdougl,1,2088,word,150,2017
0,R,CTRA,multi-stim-multi-response,30,josdougl,1,2296,nonword,150,2017
0,T,ABOT,multi-stim-multi-response,31,josdougl,1,2360,nonword,150,2017
0,K,NKIS,multi-stim-multi-response,32,josdougl,0,4251,nonword,150,2017
NULL,NULL,NULL,text,33,josdougl,NULL,NULL,NULL,NULL,2017
1,D,ERAD,multi-stim-multi-response,34,josdougl,1,2003,nonword,150,2017
1,S,KASM,multi-stim-multi-response,35,josdougl,1,2426,nonword,150,2017
1,P,SPIN,multi-stim-multi-response,36,josdougl,1,1801,word,150,2017
1,G,GENO,multi-stim-multi-response,37,josdougl,1,1890,nonword,150,2017
1,T,TAKE,multi-stim-multi-response,38,josdougl,1,2017,word,150,2017
1,L,LKEA,multi-stim-multi-response,39,josdougl,1,2018,nonword,150,2017
1,N,CTNA,multi-stim-multi-response,40,josdougl,1,3537,nonword,150,2017
1,R,CTRA,multi-stim-multi-response,41,josdougl,0,2430,nonword,150,2017
1,G,GONE,multi-stim-multi-response,42,josdougl,1,2174,word,150,2017
1,L,EAL,multi-stim-multi-response,43,josdougl,1,1932,word,150,2017
1,R,CART,multi-stim-multi-response,44,josdougl,1,2147,word,150,2017
1,K,NKIS,multi-stim-multi-response,45,josdougl,1,2455,nonword,150,2017
1,C,CENO,multi-stim-multi-response,46,josdougl,1,2098,nonword,150,2017
1,L,LAKE,multi-stim-multi-response,47,josdougl,1,1826,word,150,2017
1,L,ERAL,multi-stim-multi-response,48,josdougl,1,1766,nonword,150,2017
1,P,NPIS,multi-stim-multi-response,49,josdougl,1,3297,nonword,150,2017
1,R,MARK,multi-stim-multi-response,50,josdougl,1,2392,word,150,2017
1,T,TKEA,multi-stim-multi-response,51,josdougl,1,1936,nonword,150,2017
1,A,EAMS,multi-stim-multi-response,52,josdougl,1,2319,nonword,150,2017
1,S,MASK,multi-stim-multi-response,53,josdougl,0,2064,word,150,2017
1,D,READ,multi-stim-multi-response,54,josdougl,1,1979,word,150,2017
1,O,EOMS,multi-stim-multi-response,55,josdougl,1,1944,nonword,150,2017
1,N,CANT,multi-stim-multi-response,56,josdougl,1,1934,word,150,2017
1,R,BOAR,multi-stim-multi-response,57,josdougl,1,2017,word,150,2017
1,K,SKIN,multi-stim-multi-response,58,josdougl,1,1915,word,150,2017
1,R,KARM,multi-stim-multi-response,59,josdougl,1,2135,nonword,150,2017
1,T,ABOT,multi-stim-multi-response,60,josdougl,1,2155,nonword,150,2017
1,R,ABOR,multi-stim-multi-response,61,josdougl,1,2129,nonword,150,2017
1,O,SOME,multi-stim-multi-response,62,josdougl,1,2006,word,150,2017
1,T,BOAT,multi-stim-multi-response,63,josdougl,1,1991,word,150,2017
1,C,CONE,multi-stim-multi-response,64,josdougl,1,2294,word,150,2017
1,A,SAME,multi-stim-multi-response,65,josdougl,1,1978,word,150,2017
NULL,NULL,NULL,text,66,josdougl,NULL,NULL,NULL,NULL,2017
2,D,READ,multi-stim-multi-response,67,josdougl,1,1815,word,150,2017
2,K,NKIS,multi-stim-multi-response,68,josdougl,1,2262,nonword,150,2017
2,R,BOAR,multi-stim-multi-response,69,josdougl,1,1974,word,150,2017
2,N,CANT,multi-stim-multi-response,70,josdougl,1,1994,word,150,2017
2,O,EOMS,multi-stim-multi-response,71,josdougl,1,1768,nonword,150,2017
2,S,MASK,multi-stim-multi-response,72,josdougl,1,2469,word,150,2017
2,R,CART,multi-stim-multi-response,73,josdougl,1,1800,word,150,2017
2,O,SOME,multi-stim-multi-response,74,josdougl,1,1875,word,150,2017
2,R,MARK,multi-stim-multi-response,75,josdougl,1,1989,word,150,2017
2,D,ERAD,multi-stim-multi-response,76,josdougl,1,1852,nonword,150,2017
2,T,TAKE,multi-stim-multi-response,77,josdougl,1,1985,word,150,2017
2,P,SPIN,multi-stim-multi-response,78,josdougl,1,1901,word,150,2017
2,T,TKEA,multi-stim-multi-response,79,josdougl,1,1905,nonword,150,2017
2,G,GENO,multi-stim-multi-response,80,josdougl,1,1906,nonword,150,2017
2,C,CONE,multi-stim-multi-response,81,josdougl,1,1684,word,150,2017
2,L,EAL,multi-stim-multi-response,82,josdougl,1,1805,word,150,2017
2,T,ABOT,multi-stim-multi-response,83,josdougl,1,1915,nonword,150,2017
2,P,NPIS,multi-stim-multi-response,84,josdougl,1,1797,nonword,150,2017
2,R,ABOR,multi-stim-multi-response,85,josdougl,1,2034,nonword,150,2017
2,R,CTRA,multi-stim-multi-response,86,josdougl,1,2489,nonword,150,2017
2,T,BOAT,multi-stim-multi-response,87,josdougl,1,2492,word,150,2017
2,A,SAME,multi-stim-multi-response,88,josdougl,1,1823,word,150,2017
2,L,LKEA,multi-stim-multi-response,89,josdougl,1,1883,nonword,150,2017
2,K,SKIN,multi-stim-multi-response,90,josdougl,1,1723,word,150,2017
2,N,CTNA,multi-stim-multi-response,91,josdougl,1,2239,nonword,150,2017
2,C,CENO,multi-stim-multi-response,92,josdougl,1,2049,nonword,150,2017
2,L,ERAL,multi-stim-multi-response,93,josdougl,1,1853,nonword,150,2017
2,A,EAMS,multi-stim-multi-response,94,josdougl,1,1945,nonword,150,2017
2,R,KARM,multi-stim-multi-response,95,josdougl,1,1967,nonword,150,2017
2,S,KASM,multi-stim-multi-response,96,josdougl,1,1881,nonword,150,2017
2,L,LAKE,multi-stim-multi-response,97,josdougl,1,1807,word,150,2017
2,G,GONE,multi-stim-multi-response,98,josdougl,1,1993,word,150,2017
NULL,NULL,NULL,text,99,josdougl,NULL,NULL,NULL,NULL,2017
3,R,CTRA,multi-stim-multi-response,100,josdougl,1,2270,nonword,150,2017
3,T,TAKE,multi-stim-multi-response,101,josdougl,1,1977,word,150,2017
3,R,CART,multi-stim-multi-response,102,josdougl,1,2039,word,150,2017
3,R,ABOR,multi-stim-multi-response,103,josdougl,1,2321,nonword,150,2017
3,L,LAKE,multi-stim-multi-response,104,josdougl,1,1576,word,150,2017
3,R,MARK,multi-stim-multi-response,105,josdougl,1,1718,word,150,2017
3,R,KARM,multi-stim-multi-response,106,josdougl,1,1782,nonword,150,2017
3,O,EOMS,multi-stim-multi-response,107,josdougl,1,1893,nonword,150,2017
3,C,CONE,multi-stim-multi-response,108,josdougl,1,2146,word,150,2017
3,T,TKEA,multi-stim-multi-response,109,josdougl,1,1856,nonword,150,2017
3,S,MASK,multi-stim-multi-response,110,josdougl,1,2097,word,150,2017
3,T,BOAT,multi-stim-multi-response,111,josdougl,1,2355,word,150,2017
3,L,ERAL,multi-stim-multi-response,112,josdougl,1,1961,nonword,150,2017
3,L,LKEA,multi-stim-multi-response,113,josdougl,1,1846,nonword,150,2017
3,K,NKIS,multi-stim-multi-response,114,josdougl,1,2111,nonword,150,2017
3,G,GONE,multi-stim-multi-response,115,josdougl,1,2374,word,150,2017
3,G,GENO,multi-stim-multi-response,116,josdougl,1,1897,nonword,150,2017
3,C,CENO,multi-stim-multi-response,117,josdougl,0,2766,nonword,150,2017
3,R,BOAR,multi-stim-multi-response,118,josdougl,1,2212,word,150,2017
3,K,SKIN,multi-stim-multi-response,119,josdougl,1,1859,word,150,2017
3,D,ERAD,multi-stim-multi-response,120,josdougl,1,1924,nonword,150,2017
3,P,NPIS,multi-stim-multi-response,121,josdougl,1,2346,nonword,150,2017
3,N,CTNA,multi-stim-multi-response,122,josdougl,1,2208,nonword,150,2017
3,T,ABOT,multi-stim-multi-response,123,josdougl,1,2156,nonword,150,2017
3,S,KASM,multi-stim-multi-response,124,josdougl,0,2299,nonword,150,2017
3,O,SOME,multi-stim-multi-response,125,josdougl,1,2924,word,150,2017
3,D,READ,multi-stim-multi-response,126,josdougl,1,1733,word,150,2017
3,A,SAME,multi-stim-multi-response,127,josdougl,1,6020,word,150,2017
3,P,SPIN,multi-stim-multi-response,128,josdougl,0,4948,word,150,2017
3,L,EAL,multi-stim-multi-response,129,josdougl,1,1836,word,150,2017
3,A,EAMS,multi-stim-multi-response,130,josdougl,1,2055,nonword,150,2017
3,N,CANT,multi-stim-multi-response,131,josdougl,1,2196,word,150,2017
NULL,NULL,NULL,text,132,josdougl,NULL,NULL,NULL,NULL,2017
4,L,LAKE,multi-stim-multi-response,133,josdougl,1,1783,word,150,2017
4,T,BOAT,multi-stim-multi-response,134,josdougl,1,1942,word,150,2017
4,R,KARM,multi-stim-multi-response,135,josdougl,1,2489,nonword,150,2017
4,N,CANT,multi-stim-multi-response,136,josdougl,1,1997,word,150,2017
4,G,GENO,multi-stim-multi-response,137,josdougl,0,2678,nonword,150,2017
4,L,ERAL,multi-stim-multi-response,138,josdougl,1,1836,nonword,150,2017
4,T,TAKE,multi-stim-multi-response,139,josdougl,1,1960,word,150,2017
4,P,SPIN,multi-stim-multi-response,140,josdougl,1,2788,word,150,2017
4,L,LKEA,multi-stim-multi-response,141,josdougl,1,1711,nonword,150,2017
4,P,NPIS,multi-stim-multi-response,142,josdougl,0,3867,nonword,150,2017
4,L,EAL,multi-stim-multi-response,143,josdougl,1,1701,word,150,2017
4,S,MASK,multi-stim-multi-response,144,josdougl,1,2455,word,150,2017
4,R,CART,multi-stim-multi-response,145,josdougl,1,1945,word,150,2017
4,R,CTRA,multi-stim-multi-response,146,josdougl,1,2552,nonword,150,2017
4,A,EAMS,multi-stim-multi-response,147,josdougl,1,2038,nonword,150,2017
4,C,CENO,multi-stim-multi-response,148,josdougl,0,2523,nonword,150,2017
4,K,NKIS,multi-stim-multi-response,149,josdougl,1,2017,nonword,150,2017
4,O,EOMS,multi-stim-multi-response,150,josdougl,1,1694,nonword,150,2017
4,T,TKEA,multi-stim-multi-response,151,josdougl,1,2065,nonword,150,2017
4,A,SAME,multi-stim-multi-response,152,josdougl,1,2024,word,150,2017
4,S,KASM,multi-stim-multi-response,153,josdougl,1,2186,nonword,150,2017
4,D,ERAD,multi-stim-multi-response,154,josdougl,1,3054,nonword,150,2017
4,K,SKIN,multi-stim-multi-response,155,josdougl,1,1950,word,150,2017
4,R,ABOR,multi-stim-multi-response,156,josdougl,1,2422,nonword,150,2017
4,R,BOAR,multi-stim-multi-response,157,josdougl,1,1837,word,150,2017
4,O,SOME,multi-stim-multi-response,158,josdougl,1,2299,word,150,2017
4,C,CONE,multi-stim-multi-response,159,josdougl,1,2012,word,150,2017
4,R,MARK,multi-stim-multi-response,160,josdougl,1,2077,word,150,2017
4,N,CTNA,multi-stim-multi-response,161,josdougl,1,2073,nonword,150,2017
4,T,ABOT,multi-stim-multi-response,162,josdougl,1,2316,nonword,150,2017
4,G,GONE,multi-stim-multi-response,163,josdougl,1,2077,word,150,2017
4,D,READ,multi-stim-multi-response,164,josdougl,1,2033,word,150,2017
NULL,NULL,NULL,text,165,josdougl,NULL,NULL,NULL,NULL,2017
5,P,NPIS,multi-stim-multi-response,166,josdougl,1,1952,nonword,150,2017
5,A,SAME,multi-stim-multi-response,167,josdougl,1,1904,word,150,2017
5,K,SKIN,multi-stim-multi-response,168,josdougl,1,1869,word,150,2017
5,O,EOMS,multi-stim-multi-response,169,josdougl,1,1671,nonword,150,2017
5,O,SOME,multi-stim-multi-response,170,josdougl,1,1857,word,150,2017
5,R,MARK,multi-stim-multi-response,171,josdougl,1,2445,word,150,2017
5,T,TAKE,multi-stim-multi-response,172,josdougl,1,1822,word,150,2017
5,T,BOAT,multi-stim-multi-response,173,josdougl,1,2354,word,150,2017
5,L,LAKE,multi-stim-multi-response,174,josdougl,1,1752,word,150,2017
5,K,NKIS,multi-stim-multi-response,175,josdougl,1,1756,nonword,150,2017
5,R,CART,multi-stim-multi-response,176,josdougl,1,2010,word,150,2017
5,A,EAMS,multi-stim-multi-response,177,josdougl,1,1719,nonword,150,2017
5,R,ABOR,multi-stim-multi-response,178,josdougl,1,3083,nonword,150,2017
5,L,LKEA,multi-stim-multi-response,179,josdougl,1,1822,nonword,150,2017
5,L,EAL,multi-stim-multi-response,180,josdougl,1,1854,word,150,2017
5,P,SPIN,multi-stim-multi-response,181,josdougl,1,1869,word,150,2017
5,R,KARM,multi-stim-multi-response,182,josdougl,1,2332,nonword,150,2017
5,C,CONE,multi-stim-multi-response,183,josdougl,1,1902,word,150,2017
5,C,CENO,multi-stim-multi-response,184,josdougl,1,2053,nonword,150,2017
5,S,KASM,multi-stim-multi-response,185,josdougl,1,2170,nonword,150,2017
5,D,READ,multi-stim-multi-response,186,josdougl,1,2004,word,150,2017
5,G,GONE,multi-stim-multi-response,187,josdougl,1,1955,word,150,2017
5,T,TKEA,multi-stim-multi-response,188,josdougl,1,1914,nonword,150,2017
5,N,CANT,multi-stim-multi-response,189,josdougl,1,2176,word,150,2017
5,L,ERAL,multi-stim-multi-response,190,josdougl,1,1577,nonword,150,2017
5,G,GENO,multi-stim-multi-response,191,josdougl,1,1831,nonword,150,2017
5,S,MASK,multi-stim-multi-response,192,josdougl,1,2156,word,150,2017
5,T,ABOT,multi-stim-multi-response,193,josdougl,1,2068,nonword,150,2017
5,R,BOAR,multi-stim-multi-response,194,josdougl,1,1780,word,150,2017
5,D,ERAD,multi-stim-multi-response,195,josdougl,1,1780,nonword,150,2017
5,N,CTNA,multi-stim-multi-response,196,josdougl,1,2160,nonword,150,2017
5,R,CTRA,multi-stim-multi-response,197,josdougl,0,3655,nonword,150,2017
NULL,NULL,NULL,text,198,josdougl,NULL,NULL,NULL,NULL,2017
NULL,NULL,NULL,text,0,gripatel,NULL,NULL,NULL,NULL,2017
0,T,TKEA,multi-stim-multi-response,1,gripatel,1,4800,nonword,40,2017
0,T,BOAT,multi-stim-multi-response,2,gripatel,1,3634,word,40,2017
0,N,CANT,multi-stim-multi-response,3,gripatel,1,3131,word,40,2017
0,T,ABOT,multi-stim-multi-response,4,gripatel,1,3935,nonword,40,2017
0,L,LAKE,multi-stim-multi-response,5,gripatel,1,2599,word,40,2017
0,L,LKEA,multi-stim-multi-response,6,gripatel,0,2813,nonword,40,2017
0,O,SOME,multi-stim-multi-response,7,gripatel,1,3063,word,40,2017
0,L,EAL,multi-stim-multi-response,8,gripatel,1,2603,word,40,2017
0,T,TAKE,multi-stim-multi-response,9,gripatel,1,2284,word,40,2017
0,K,SKIN,multi-stim-multi-response,10,gripatel,1,2756,word,40,2017
0,C,CENO,multi-stim-multi-response,11,gripatel,1,2203,nonword,40,2017
0,D,READ,multi-stim-multi-response,12,gripatel,0,48413,word,40,2017
0,R,MARK,multi-stim-multi-response,13,gripatel,1,2351,word,40,2017
0,S,MASK,multi-stim-multi-response,14,gripatel,1,3746,word,40,2017
0,D,ERAD,multi-stim-multi-response,15,gripatel,1,2358,nonword,40,2017
0,C,CONE,multi-stim-multi-response,16,gripatel,1,2045,word,40,2017
0,K,NKIS,multi-stim-multi-response,17,gripatel,0,2386,nonword,40,2017
0,R,KARM,multi-stim-multi-response,18,gripatel,1,3528,nonword,40,2017
0,L,ERAL,multi-stim-multi-response,19,gripatel,1,2044,nonword,40,2017
0,R,CTRA,multi-stim-multi-response,20,gripatel,1,2247,nonword,40,2017
0,P,SPIN,multi-stim-multi-response,21,gripatel,1,18619,word,40,2017
0,R,ABOR,multi-stim-multi-response,22,gripatel,0,2612,nonword,40,2017
0,P,NPIS,multi-stim-multi-response,23,gripatel,1,3355,nonword,40,2017
0,A,SAME,multi-stim-multi-response,24,gripatel,1,2968,word,40,2017
0,R,CART,multi-stim-multi-response,25,gripatel,1,2124,word,40,2017
0,G,GONE,multi-stim-multi-response,26,gripatel,1,2076,word,40,2017
0,G,GENO,multi-stim-multi-response,27,gripatel,1,2335,nonword,40,2017
0,R,BOAR,multi-stim-multi-response,28,gripatel,1,2139,word,40,2017
0,N,CTNA,multi-stim-multi-response,29,gripatel,0,2049,nonword,40,2017
0,A,EAMS,multi-stim-multi-response,30,gripatel,1,2655,nonword,40,2017
0,O,EOMS,multi-stim-multi-response,31,gripatel,1,2016,nonword,40,2017
0,S,KASM,multi-stim-multi-response,32,gripatel,1,2267,nonword,40,2017
NULL,NULL,NULL,text,33,gripatel,NULL,NULL,NULL,NULL,2017
1,K,NKIS,multi-stim-multi-response,34,gripatel,1,2683,nonword,40,2017
1,A,SAME,multi-stim-multi-response,35,gripatel,1,2235,word,40,2017
1,A,EAMS,multi-stim-multi-response,36,gripatel,1,2557,nonword,40,2017
1,P,NPIS,multi-stim-multi-response,37,gripatel,1,2184,nonword,40,2017
1,R,KARM,multi-stim-multi-response,38,gripatel,1,2235,nonword,40,2017
1,C,CENO,multi-stim-multi-response,39,gripatel,1,2035,nonword,40,2017
1,O,EOMS,multi-stim-multi-response,40,gripatel,0,3826,nonword,40,2017
1,L,LKEA,multi-stim-multi-response,41,gripatel,1,2067,nonword,40,2017
1,T,TKEA,multi-stim-multi-response,42,gripatel,1,2058,nonword,40,2017
1,D,READ,multi-stim-multi-response,43,gripatel,1,2329,word,40,2017
1,L,ERAL,multi-stim-multi-response,44,gripatel,1,1861,nonword,40,2017
1,C,CONE,multi-stim-multi-response,45,gripatel,1,2024,word,40,2017
1,R,CTRA,multi-stim-multi-response,46,gripatel,0,2987,nonword,40,2017
1,D,ERAD,multi-stim-multi-response,47,gripatel,1,2048,nonword,40,2017
1,L,EAL,multi-stim-multi-response,48,gripatel,1,1743,word,40,2017
1,L,LAKE,multi-stim-multi-response,49,gripatel,1,1983,word,40,2017
1,R,ABOR,multi-stim-multi-response,50,gripatel,0,2128,nonword,40,2017
1,T,TAKE,multi-stim-multi-response,51,gripatel,1,2098,word,40,2017
1,G,GONE,multi-stim-multi-response,52,gripatel,1,1862,word,40,2017
1,R,BOAR,multi-stim-multi-response,53,gripatel,1,2488,word,40,2017
1,O,SOME,multi-stim-multi-response,54,gripatel,1,1885,word,40,2017
1,T,ABOT,multi-stim-multi-response,55,gripatel,1,2089,nonword,40,2017
1,S,MASK,multi-stim-multi-response,56,gripatel,1,2434,word,40,2017
1,N,CTNA,multi-stim-multi-response,57,gripatel,1,2235,nonword,40,2017
1,N,CANT,multi-stim-multi-response,58,gripatel,1,2118,word,40,2017
1,G,GENO,multi-stim-multi-response,59,gripatel,1,2109,nonword,40,2017
1,K,SKIN,multi-stim-multi-response,60,gripatel,1,1993,word,40,2017
1,R,MARK,multi-stim-multi-response,61,gripatel,1,2165,word,40,2017
1,P,SPIN,multi-stim-multi-response,62,gripatel,1,2175,word,40,2017
1,R,CART,multi-stim-multi-response,63,gripatel,1,2318,word,40,2017
1,S,KASM,multi-stim-multi-response,64,gripatel,1,4051,nonword,40,2017
1,T,BOAT,multi-stim-multi-response,65,gripatel,1,2069,word,40,2017
NULL,NULL,NULL,text,66,gripatel,NULL,NULL,NULL,NULL,2017
2,T,BOAT,multi-stim-multi-response,67,gripatel,1,2285,word,40,2017
2,S,KASM,multi-stim-multi-response,68,gripatel,1,2275,nonword,40,2017
2,N,CTNA,multi-stim-multi-response,69,gripatel,1,2276,nonword,40,2017
2,O,EOMS,multi-stim-multi-response,70,gripatel,0,9786,nonword,40,2017
2,R,MARK,multi-stim-multi-response,71,gripatel,1,1829,word,40,2017
2,L,ERAL,multi-stim-multi-response,72,gripatel,1,1753,nonword,40,2017
2,T,ABOT,multi-stim-multi-response,73,gripatel,1,2196,nonword,40,2017
2,K,NKIS,multi-stim-multi-response,74,gripatel,1,2606,nonword,40,2017
2,P,SPIN,multi-stim-multi-response,75,gripatel,1,2146,word,40,2017
2,A,SAME,multi-stim-multi-response,76,gripatel,1,2034,word,40,2017
2,G,GENO,multi-stim-multi-response,77,gripatel,1,1896,nonword,40,2017
2,G,GONE,multi-stim-multi-response,78,gripatel,1,1425,word,40,2017
2,P,NPIS,multi-stim-multi-response,79,gripatel,1,4517,nonword,40,2017
2,D,READ,multi-stim-multi-response,80,gripatel,1,1953,word,40,2017
2,L,LAKE,multi-stim-multi-response,81,gripatel,1,1655,word,40,2017
2,D,ERAD,multi-stim-multi-response,82,gripatel,0,2836,nonword,40,2017
2,R,KARM,multi-stim-multi-response,83,gripatel,1,2048,nonword,40,2017
2,T,TAKE,multi-stim-multi-response,84,gripatel,1,1852,word,40,2017
2,O,SOME,multi-stim-multi-response,85,gripatel,1,1975,word,40,2017
2,R,BOAR,multi-stim-multi-response,86,gripatel,1,1887,word,40,2017
2,L,EAL,multi-stim-multi-response,87,gripatel,1,1669,word,40,2017
2,K,SKIN,multi-stim-multi-response,88,gripatel,1,1752,word,40,2017
2,S,MASK,multi-stim-multi-response,89,gripatel,1,1978,word,40,2017
2,C,CONE,multi-stim-multi-response,90,gripatel,1,1624,word,40,2017
2,L,LKEA,multi-stim-multi-response,91,gripatel,1,2005,nonword,40,2017
2,R,CTRA,multi-stim-multi-response,92,gripatel,1,2005,nonword,40,2017
2,R,CART,multi-stim-multi-response,93,gripatel,1,1895,word,40,2017
2,A,EAMS,multi-stim-multi-response,94,gripatel,0,2204,nonword,40,2017
2,T,TKEA,multi-stim-multi-response,95,gripatel,1,1946,nonword,40,2017
2,R,ABOR,multi-stim-multi-response,96,gripatel,0,2254,nonword,40,2017
2,C,CENO,multi-stim-multi-response,97,gripatel,1,1956,nonword,40,2017
2,N,CANT,multi-stim-multi-response,98,gripatel,1,2115,word,40,2017
NULL,NULL,NULL,text,99,gripatel,NULL,NULL,NULL,NULL,2017
3,K,NKIS,multi-stim-multi-response,100,gripatel,1,2014,nonword,40,2017
3,A,EAMS,multi-stim-multi-response,101,gripatel,0,1915,nonword,40,2017
3,D,READ,multi-stim-multi-response,102,gripatel,1,1827,word,40,2017
3,R,ABOR,multi-stim-multi-response,103,gripatel,0,1937,nonword,40,2017
3,R,BOAR,multi-stim-multi-response,104,gripatel,1,1683,word,40,2017
3,K,SKIN,multi-stim-multi-response,105,gripatel,1,1656,word,40,2017
3,S,KASM,multi-stim-multi-response,106,gripatel,1,2174,nonword,40,2017
3,P,SPIN,multi-stim-multi-response,107,gripatel,1,2097,word,40,2017
3,R,MARK,multi-stim-multi-response,108,gripatel,1,1827,word,40,2017
3,T,TAKE,multi-stim-multi-response,109,gripatel,1,1700,word,40,2017
3,L,LKEA,multi-stim-multi-response,110,gripatel,1,1815,nonword,40,2017
3,C,CONE,multi-stim-multi-response,111,gripatel,1,1724,word,40,2017
3,L,EAL,multi-stim-multi-response,112,gripatel,1,1915,word,40,2017
3,S,MASK,multi-stim-multi-response,113,gripatel,1,2855,word,40,2017
3,C,CENO,multi-stim-multi-response,114,gripatel,1,1763,nonword,40,2017
3,R,CTRA,multi-stim-multi-response,115,gripatel,0,2758,nonword,40,2017
3,L,ERAL,multi-stim-multi-response,116,gripatel,1,1721,nonword,40,2017
3,R,CART,multi-stim-multi-response,117,gripatel,1,2288,word,40,2017
3,R,KARM,multi-stim-multi-response,118,gripatel,0,2481,nonword,40,2017
3,T,BOAT,multi-stim-multi-response,119,gripatel,1,1866,word,40,2017
3,G,GONE,multi-stim-multi-response,120,gripatel,1,1946,word,40,2017
3,N,CTNA,multi-stim-multi-response,121,gripatel,1,2042,nonword,40,2017
3,T,ABOT,multi-stim-multi-response,122,gripatel,1,1744,nonword,40,2017
3,O,EOMS,multi-stim-multi-response,123,gripatel,1,1967,nonword,40,2017
3,P,NPIS,multi-stim-multi-response,124,gripatel,1,1831,nonword,40,2017
3,L,LAKE,multi-stim-multi-response,125,gripatel,1,1709,word,40,2017
3,D,ERAD,multi-stim-multi-response,126,gripatel,1,2297,nonword,40,2017
3,G,GENO,multi-stim-multi-response,127,gripatel,1,1990,nonword,40,2017
3,A,SAME,multi-stim-multi-response,128,gripatel,1,2232,word,40,2017
3,T,TKEA,multi-stim-multi-response,129,gripatel,1,1875,nonword,40,2017
3,N,CANT,multi-stim-multi-response,130,gripatel,1,2122,word,40,2017
3,O,SOME,multi-stim-multi-response,131,gripatel,1,1846,word,40,2017
NULL,NULL,NULL,text,132,gripatel,NULL,NULL,NULL,NULL,2017
4,T,TAKE,multi-stim-multi-response,133,gripatel,1,1470,word,40,2017
4,R,BOAR,multi-stim-multi-response,134,gripatel,1,1884,word,40,2017
4,L,ERAL,multi-stim-multi-response,135,gripatel,1,1583,nonword,40,2017
4,L,LAKE,multi-stim-multi-response,136,gripatel,1,1876,word,40,2017
4,R,MARK,multi-stim-multi-response,137,gripatel,1,1812,word,40,2017
4,O,EOMS,multi-stim-multi-response,138,gripatel,1,1793,nonword,40,2017
4,K,NKIS,multi-stim-multi-response,139,gripatel,1,2124,nonword,40,2017
4,S,KASM,multi-stim-multi-response,140,gripatel,1,2118,nonword,40,2017
4,S,MASK,multi-stim-multi-response,141,gripatel,1,2481,word,40,2017
4,R,KARM,multi-stim-multi-response,142,gripatel,1,2346,nonword,40,2017
4,G,GONE,multi-stim-multi-response,143,gripatel,1,2022,word,40,2017
4,D,READ,multi-stim-multi-response,144,gripatel,1,1816,word,40,2017
4,C,CONE,multi-stim-multi-response,145,gripatel,1,1931,word,40,2017
4,G,GENO,multi-stim-multi-response,146,gripatel,1,1906,nonword,40,2017
4,K,SKIN,multi-stim-multi-response,147,gripatel,1,1706,word,40,2017
4,T,BOAT,multi-stim-multi-response,148,gripatel,1,1878,word,40,2017
4,T,TKEA,multi-stim-multi-response,149,gripatel,1,1753,nonword,40,2017
4,N,CANT,multi-stim-multi-response,150,gripatel,1,1935,word,40,2017
4,R,ABOR,multi-stim-multi-response,151,gripatel,0,1874,nonword,40,2017
4,L,EAL,multi-stim-multi-response,152,gripatel,1,1766,word,40,2017
4,D,ERAD,multi-stim-multi-response,153,gripatel,1,1761,nonword,40,2017
4,N,CTNA,multi-stim-multi-response,154,gripatel,1,1802,nonword,40,2017
4,T,ABOT,multi-stim-multi-response,155,gripatel,1,1747,nonword,40,2017
4,O,SOME,multi-stim-multi-response,156,gripatel,1,1750,word,40,2017
4,L,LKEA,multi-stim-multi-response,157,gripatel,1,1940,nonword,40,2017
4,P,NPIS,multi-stim-multi-response,158,gripatel,1,1943,nonword,40,2017
4,R,CART,multi-stim-multi-response,159,gripatel,0,1705,word,40,2017
4,A,SAME,multi-stim-multi-response,160,gripatel,1,2257,word,40,2017
4,A,EAMS,multi-stim-multi-response,161,gripatel,1,2223,nonword,40,2017
4,P,SPIN,multi-stim-multi-response,162,gripatel,1,1635,word,40,2017
4,C,CENO,multi-stim-multi-response,163,gripatel,1,2245,nonword,40,2017
4,R,CTRA,multi-stim-multi-response,164,gripatel,0,1889,nonword,40,2017
NULL,NULL,NULL,text,165,gripatel,NULL,NULL,NULL,NULL,2017
5,R,MARK,multi-stim-multi-response,166,gripatel,1,2207,word,40,2017
5,S,MASK,multi-stim-multi-response,167,gripatel,1,1803,word,40,2017
5,K,SKIN,multi-stim-multi-response,168,gripatel,1,1747,word,40,2017
5,R,BOAR,multi-stim-multi-response,169,gripatel,1,2180,word,40,2017
5,R,ABOR,multi-stim-multi-response,170,gripatel,1,1745,nonword,40,2017
5,D,ERAD,multi-stim-multi-response,171,gripatel,1,1804,nonword,40,2017
5,T,TAKE,multi-stim-multi-response,172,gripatel,1,2258,word,40,2017
5,L,LKEA,multi-stim-multi-response,173,gripatel,1,1829,nonword,40,2017
5,T,TKEA,multi-stim-multi-response,174,gripatel,1,1570,nonword,40,2017
5,N,CANT,multi-stim-multi-response,175,gripatel,1,2015,word,40,2017
5,R,CTRA,multi-stim-multi-response,176,gripatel,0,1854,nonword,40,2017
5,P,SPIN,multi-stim-multi-response,177,gripatel,1,1621,word,40,2017
5,L,ERAL,multi-stim-multi-response,178,gripatel,0,2695,nonword,40,2017
5,T,ABOT,multi-stim-multi-response,179,gripatel,1,1883,nonword,40,2017
5,L,EAL,multi-stim-multi-response,180,gripatel,1,1696,word,40,2017
5,O,SOME,multi-stim-multi-response,181,gripatel,1,1863,word,40,2017
5,N,CTNA,multi-stim-multi-response,182,gripatel,1,1674,nonword,40,2017
5,G,GENO,multi-stim-multi-response,183,gripatel,1,1924,nonword,40,2017
5,R,KARM,multi-stim-multi-response,184,gripatel,1,1836,nonword,40,2017
5,T,BOAT,multi-stim-multi-response,185,gripatel,1,1753,word,40,2017
5,A,SAME,multi-stim-multi-response,186,gripatel,1,5693,word,40,2017
5,R,CART,multi-stim-multi-response,187,gripatel,1,1914,word,40,2017
5,D,READ,multi-stim-multi-response,188,gripatel,1,1852,word,40,2017
5,O,EOMS,multi-stim-multi-response,189,gripatel,1,1754,nonword,40,2017
5,K,NKIS,multi-stim-multi-response,190,gripatel,1,1694,nonword,40,2017
5,S,KASM,multi-stim-multi-response,191,gripatel,0,1805,nonword,40,2017
5,P,NPIS,multi-stim-multi-response,192,gripatel,1,1617,nonword,40,2017
5,G,GONE,multi-stim-multi-response,193,gripatel,1,1685,word,40,2017
5,L,LAKE,multi-stim-multi-response,194,gripatel,1,1615,word,40,2017
5,C,CONE,multi-stim-multi-response,195,gripatel,1,1802,word,40,2017
5,C,CENO,multi-stim-multi-response,196,gripatel,0,1742,nonword,40,2017
5,A,EAMS,multi-stim-multi-response,197,gripatel,1,2203,nonword,40,2017
NULL,NULL,NULL,text,198,gripatel,NULL,NULL,NULL,NULL,2017
NULL,NULL,NULL,text,0,hbobeck,NULL,NULL,NULL,NULL,2017
0,G,GONE,multi-stim-multi-response,1,hbobeck,1,2155,word,40,2017
0,R,KARM,multi-stim-multi-response,2,hbobeck,1,1928,nonword,40,2017
0,D,ERAD,multi-stim-multi-response,3,hbobeck,1,2587,nonword,40,2017
0,R,CTRA,multi-stim-multi-response,4,hbobeck,1,3570,nonword,40,2017
0,R,BOAR,multi-stim-multi-response,5,hbobeck,0,6163,word,40,2017
0,T,TAKE,multi-stim-multi-response,6,hbobeck,1,1729,word,40,2017
0,G,GENO,multi-stim-multi-response,7,hbobeck,1,1751,nonword,40,2017
0,L,EAL,multi-stim-multi-response,8,hbobeck,1,1678,word,40,2017
0,L,ERAL,multi-stim-multi-response,9,hbobeck,1,1716,nonword,40,2017
0,C,CENO,multi-stim-multi-response,10,hbobeck,1,1769,nonword,40,2017
0,O,SOME,multi-stim-multi-response,11,hbobeck,1,1866,word,40,2017
0,K,NKIS,multi-stim-multi-response,12,hbobeck,0,4886,nonword,40,2017
0,S,MASK,multi-stim-multi-response,13,hbobeck,1,1727,word,40,2017
0,A,SAME,multi-stim-multi-response,14,hbobeck,1,1679,word,40,2017
0,N,CTNA,multi-stim-multi-response,15,hbobeck,0,2841,nonword,40,2017
0,D,READ,multi-stim-multi-response,16,hbobeck,1,2250,word,40,2017
0,P,SPIN,multi-stim-multi-response,17,hbobeck,1,1732,word,40,2017
0,R,CART,multi-stim-multi-response,18,hbobeck,1,2164,word,40,2017
0,L,LAKE,multi-stim-multi-response,19,hbobeck,1,2118,word,40,2017
0,T,BOAT,multi-stim-multi-response,20,hbobeck,1,1856,word,40,2017
0,R,ABOR,multi-stim-multi-response,21,hbobeck,0,2366,nonword,40,2017
0,C,CONE,multi-stim-multi-response,22,hbobeck,0,1740,word,40,2017
0,T,ABOT,multi-stim-multi-response,23,hbobeck,1,3058,nonword,40,2017
0,A,EAMS,multi-stim-multi-response,24,hbobeck,1,2389,nonword,40,2017
0,T,TKEA,multi-stim-multi-response,25,hbobeck,1,4117,nonword,40,2017
0,O,EOMS,multi-stim-multi-response,26,hbobeck,0,2147,nonword,40,2017
0,K,SKIN,multi-stim-multi-response,27,hbobeck,1,1789,word,40,2017
0,L,LKEA,multi-stim-multi-response,28,hbobeck,1,2513,nonword,40,2017
0,S,KASM,multi-stim-multi-response,29,hbobeck,1,1671,nonword,40,2017
0,R,MARK,multi-stim-multi-response,30,hbobeck,1,1760,word,40,2017
0,P,NPIS,multi-stim-multi-response,31,hbobeck,1,1763,nonword,40,2017
0,N,CANT,multi-stim-multi-response,32,hbobeck,1,3857,word,40,2017
NULL,NULL,NULL,text,33,hbobeck,NULL,NULL,NULL,NULL,2017
1,G,GONE,multi-stim-multi-response,34,hbobeck,1,1748,word,40,2017
1,D,READ,multi-stim-multi-response,35,hbobeck,1,1838,word,40,2017
1,R,CART,multi-stim-multi-response,36,hbobeck,1,1505,word,40,2017
1,A,SAME,multi-stim-multi-response,37,hbobeck,1,1726,word,40,2017
1,L,EAL,multi-stim-multi-response,38,hbobeck,1,1638,word,40,2017
1,P,NPIS,multi-stim-multi-response,39,hbobeck,1,1814,nonword,40,2017
1,R,MARK,multi-stim-multi-response,40,hbobeck,1,1730,word,40,2017
1,C,CONE,multi-stim-multi-response,41,hbobeck,1,3579,word,40,2017
1,N,CTNA,multi-stim-multi-response,42,hbobeck,1,2358,nonword,40,2017
1,R,ABOR,multi-stim-multi-response,43,hbobeck,1,1835,nonword,40,2017
1,K,NKIS,multi-stim-multi-response,44,hbobeck,0,1642,nonword,40,2017
1,T,TAKE,multi-stim-multi-response,45,hbobeck,1,2268,word,40,2017
1,R,KARM,multi-stim-multi-response,46,hbobeck,1,1590,nonword,40,2017
1,T,TKEA,multi-stim-multi-response,47,hbobeck,1,6163,nonword,40,2017
1,T,ABOT,multi-stim-multi-response,48,hbobeck,1,2461,nonword,40,2017
1,O,EOMS,multi-stim-multi-response,49,hbobeck,1,1981,nonword,40,2017
1,L,LAKE,multi-stim-multi-response,50,hbobeck,1,2379,word,40,2017
1,K,SKIN,multi-stim-multi-response,51,hbobeck,1,1683,word,40,2017
1,S,MASK,multi-stim-multi-response,52,hbobeck,1,1658,word,40,2017
1,T,BOAT,multi-stim-multi-response,53,hbobeck,1,1787,word,40,2017
1,L,ERAL,multi-stim-multi-response,54,hbobeck,1,1795,nonword,40,2017
1,A,EAMS,multi-stim-multi-response,55,hbobeck,1,2312,nonword,40,2017
1,S,KASM,multi-stim-multi-response,56,hbobeck,1,1653,nonword,40,2017
1,N,CANT,multi-stim-multi-response,57,hbobeck,1,1828,word,40,2017
1,C,CENO,multi-stim-multi-response,58,hbobeck,1,2237,nonword,40,2017
1,D,ERAD,multi-stim-multi-response,59,hbobeck,0,1655,nonword,40,2017
1,L,LKEA,multi-stim-multi-response,60,hbobeck,1,2249,nonword,40,2017
1,O,SOME,multi-stim-multi-response,61,hbobeck,1,1641,word,40,2017
1,P,SPIN,multi-stim-multi-response,62,hbobeck,1,1635,word,40,2017
1,G,GENO,multi-stim-multi-response,63,hbobeck,1,1784,nonword,40,2017
1,R,BOAR,multi-stim-multi-response,64,hbobeck,0,1854,word,40,2017
1,R,CTRA,multi-stim-multi-response,65,hbobeck,1,1987,nonword,40,2017
NULL,NULL,NULL,text,66,hbobeck,NULL,NULL,NULL,NULL,2017
2,T,ABOT,multi-stim-multi-response,67,hbobeck,1,2103,nonword,40,2017
2,N,CTNA,multi-stim-multi-response,68,hbobeck,1,2001,nonword,40,2017
