subject condition group cat trial_type trial block resp corr_resp hit RT fileinfo schedule cat_diff studied
1 IB passive 2 training 0 0 zade zade 1 2633 Fc1_1222.png interleaved NA NA 
1 IB passive 2 training 1 0 zade zade 1 2804 Fc1_1213.png interleaved same_cat NA 
1 IB passive 2 training 2 0 kipe kipe 1 1045 Fc1_1313.png interleaved diff_cat NA 
1 IB passive 2 training 3 0 kipe kipe 1 1435 Fc1_1311.png interleaved same_cat NA 
1 IB passive 2 training 4 0 kipe kipe 1 1362 Fc1_1322.png interleaved same_cat NA 
1 IB passive 2 training 5 0 beme beme 1 832 Fc1_1112.png interleaved diff_cat NA 
1 IB passive 2 training 6 0 zade zade 1 912 Fc1_1211.png interleaved diff_cat NA 
1 IB passive 2 training 7 0 zade zade 1 1604 Fc1_1213.png interleaved same_cat NA 
1 IB passive 2 training 8 0 beme beme 1 812 Fc1_1113.png interleaved diff_cat NA 
1 IB passive 2 training 9 0 kipe kipe 1 834 Fc1_1321.png interleaved diff_cat NA 
1 IB passive 2 training 10 0 zade zade 1 905 Fc1_1211.png interleaved diff_cat NA 
1 IB passive 2 training 11 0 kipe kipe 1 1390 Fc1_1313.png interleaved diff_cat NA 
1 IB passive 2 training 12 0 beme beme 1 823 Fc1_1113.png interleaved diff_cat NA 
1 IB passive 2 training 13 0 kipe kipe 1 1431 Fc1_1312.png interleaved diff_cat NA 
1 IB passive 2 training 14 0 kipe kipe 1 794 Fc1_1311.png interleaved same_cat NA 
1 IB passive 2 training 15 0 beme beme 1 1555 Fc1_1122.png interleaved diff_cat NA 
1 IB passive 2 training 16 0 beme beme 1 934 Fc1_1111.png interleaved same_cat NA 
1 IB passive 2 training 17 0 kipe beme 0 1151 Fc1_1122.png interleaved same_cat NA 
1 IB passive 2 training 18 0 zade zade 1 1269 Fc1_1222.png interleaved diff_cat NA 
1 IB passive 2 training 19 0 kipe kipe 1 884 Fc1_1321.png interleaved diff_cat NA 
1 IB passive 2 training 20 0 zade zade 1 1312 Fc1_1221.png interleaved diff_cat NA 
1 IB passive 2 training 21 0 beme beme 1 1152 Fc1_1121.png interleaved diff_cat NA 
1 IB passive 2 training 22 0 kipe kipe 1 1350 Fc1_1321.png interleaved diff_cat NA 
1 IB passive 2 training 23 0 zade zade 1 1300 Fc1_1213.png interleaved diff_cat NA 
1 IB passive 2 training 24 1 zade zade 1 1213 Fc1_1222.png interleaved NA NA 
1 IB passive 2 training 25 1 zade zade 1 1406 Fc1_1213.png interleaved same_cat NA 
1 IB passive 2 training 26 1 kipe kipe 1 843 Fc1_1313.png interleaved diff_cat NA 
1 IB passive 2 training 27 1 kipe kipe 1 1465 Fc1_1311.png interleaved same_cat NA 
1 IB passive 2 training 28 1 kipe kipe 1 1311 Fc1_1322.png interleaved same_cat NA 
1 IB passive 2 training 29 1 beme beme 1 1163 Fc1_1112.png interleaved diff_cat NA 
1 IB passive 2 training 30 1 zade zade 1 1130 Fc1_1211.png interleaved diff_cat NA 
1 IB passive 2 training 31 1 zade zade 1 1812 Fc1_1213.png interleaved same_cat NA 
1 IB passive 2 training 32 1 beme beme 1 1039 Fc1_1113.png interleaved diff_cat NA 
1 IB passive 2 training 33 1 kipe kipe 1 1443 Fc1_1321.png interleaved diff_cat NA 
1 IB passive 2 training 34 1 zade zade 1 1151 Fc1_1211.png interleaved diff_cat NA 
1 IB passive 2 training 35 1 kipe kipe 1 2192 Fc1_1313.png interleaved diff_cat NA 
1 IB passive 2 training 36 1 beme beme 1 1304 Fc1_1113.png interleaved diff_cat NA 
1 IB passive 2 training 37 1 kipe kipe 1 784 Fc1_1312.png interleaved diff_cat NA 
1 IB passive 2 training 38 1 kipe kipe 1 1180 Fc1_1311.png interleaved same_cat NA 
1 IB passive 2 training 39 1 beme beme 1 1219 Fc1_1122.png interleaved diff_cat NA 
1 IB passive 2 training 40 1 beme beme 1 1419 Fc1_1111.png interleaved same_cat NA 
1 IB passive 2 training 41 1 beme beme 1 2534 Fc1_1122.png interleaved same_cat NA 
1 IB passive 2 training 42 1 zade zade 1 1395 Fc1_1222.png interleaved diff_cat NA 
1 IB passive 2 training 43 1 kipe kipe 1 1492 Fc1_1321.png interleaved diff_cat NA 
1 IB passive 2 training 44 1 zade zade 1 1588 Fc1_1221.png interleaved diff_cat NA 
1 IB passive 2 training 45 1 beme beme 1 1260 Fc1_1121.png interleaved diff_cat NA 
1 IB passive 2 training 46 1 kipe kipe 1 1177 Fc1_1321.png interleaved diff_cat NA 
1 IB passive 2 training 47 1 zade zade 1 1587 Fc1_1213.png interleaved diff_cat NA 
1 IB passive 2 training 48 2 zade zade 1 995 Fc1_1222.png interleaved NA NA 
1 IB passive 2 training 49 2 zade zade 1 863 Fc1_1213.png interleaved same_cat NA 
1 IB passive 2 training 50 2 kipe kipe 1 1138 Fc1_1313.png interleaved diff_cat NA 
1 IB passive 2 training 51 2 kipe kipe 1 822 Fc1_1311.png interleaved same_cat NA 
1 IB passive 2 training 52 2 kipe kipe 1 751 Fc1_1322.png interleaved same_cat NA 
1 IB passive 2 training 53 2 beme beme 1 1095 Fc1_1112.png interleaved diff_cat NA 
1 IB passive 2 training 54 2 zade zade 1 1453 Fc1_1211.png interleaved diff_cat NA 
1 IB passive 2 training 55 2 zade zade 1 978 Fc1_1213.png interleaved same_cat NA 
1 IB passive 2 training 56 2 beme beme 1 821 Fc1_1113.png interleaved diff_cat NA 
1 IB passive 2 training 57 2 kipe kipe 1 1067 Fc1_1321.png interleaved diff_cat NA 
1 IB passive 2 training 58 2 zade zade 1 1108 Fc1_1211.png interleaved diff_cat NA 
1 IB passive 2 training 59 2 kipe kipe 1 684 Fc1_1313.png interleaved diff_cat NA 
1 IB passive 2 training 60 2 beme beme 1 1605 Fc1_1113.png interleaved diff_cat NA 
1 IB passive 2 training 61 2 kipe kipe 1 1193 Fc1_1312.png interleaved diff_cat NA 
1 IB passive 2 training 62 2 kipe kipe 1 1137 Fc1_1311.png interleaved same_cat NA 
1 IB passive 2 training 63 2 beme beme 1 1221 Fc1_1122.png interleaved diff_cat NA 
1 IB passive 2 training 64 2 beme beme 1 1587 Fc1_1111.png interleaved same_cat NA 
1 IB passive 2 training 65 2 beme beme 1 1254 Fc1_1122.png interleaved same_cat NA 
1 IB passive 2 training 66 2 zade zade 1 915 Fc1_1222.png interleaved diff_cat NA 
1 IB passive 2 training 67 2 kipe kipe 1 720 Fc1_1321.png interleaved diff_cat NA 
1 IB passive 2 training 68 2 zade zade 1 1100 Fc1_1221.png interleaved diff_cat NA 
1 IB passive 2 training 69 2 beme beme 1 1945 Fc1_1121.png interleaved diff_cat NA 
1 IB passive 2 training 70 2 kipe kipe 1 1473 Fc1_1321.png interleaved diff_cat NA 
1 IB passive 2 training 71 2 zade zade 1 1057 Fc1_1213.png interleaved diff_cat NA 
1 IB passive 2 training 72 3 zade zade 1 1264 Fc1_1222.png interleaved NA NA 
1 IB passive 2 training 73 3 zade zade 1 1033 Fc1_1213.png interleaved same_cat NA 
1 IB passive 2 training 74 3 kipe kipe 1 1260 Fc1_1313.png interleaved diff_cat NA 
1 IB passive 2 training 75 3 kipe kipe 1 1351 Fc1_1311.png interleaved same_cat NA 
1 IB passive 2 training 76 3 kipe kipe 1 1410 Fc1_1322.png interleaved same_cat NA 
1 IB passive 2 training 77 3 beme beme 1 833 Fc1_1112.png interleaved diff_cat NA 
1 IB passive 2 training 78 3 zade zade 1 1020 Fc1_1211.png interleaved diff_cat NA 
1 IB passive 2 training 79 3 zade zade 1 1026 Fc1_1213.png interleaved same_cat NA 
1 IB passive 2 training 80 3 beme beme 1 1226 Fc1_1113.png interleaved diff_cat NA 
1 IB passive 2 training 81 3 kipe kipe 1 1210 Fc1_1321.png interleaved diff_cat NA 
1 IB passive 2 training 82 3 zade zade 1 1034 Fc1_1211.png interleaved diff_cat NA 
1 IB passive 2 training 83 3 kipe kipe 1 1152 Fc1_1313.png interleaved diff_cat NA 
1 IB passive 2 training 84 3 beme beme 1 865 Fc1_1113.png interleaved diff_cat NA 
1 IB passive 2 training 85 3 kipe kipe 1 867 Fc1_1312.png interleaved diff_cat NA 
1 IB passive 2 training 86 3 kipe kipe 1 1139 Fc1_1311.png interleaved same_cat NA 
1 IB passive 2 training 87 3 beme beme 1 1011 Fc1_1122.png interleaved diff_cat NA 
1 IB passive 2 training 88 3 beme beme 1 870 Fc1_1111.png interleaved same_cat NA 
1 IB passive 2 training 89 3 beme beme 1 1206 Fc1_1122.png interleaved same_cat NA 
1 IB passive 2 training 90 3 zade zade 1 1048 Fc1_1222.png interleaved diff_cat NA 
1 IB passive 2 training 91 3 kipe kipe 1 843 Fc1_1321.png interleaved diff_cat NA 
1 IB passive 2 training 92 3 zade zade 1 1270 Fc1_1221.png interleaved diff_cat NA 
1 IB passive 2 training 93 3 beme beme 1 1229 Fc1_1121.png interleaved diff_cat NA 
1 IB passive 2 training 94 3 kipe kipe 1 1477 Fc1_1321.png interleaved diff_cat NA 
1 IB passive 2 training 95 3 zade zade 1 1295 Fc1_1213.png interleaved diff_cat NA 
1 IB passive 2 test 0 0 zade zade 1 1583 Fc1_2222.png interleaved NA novel 
1 IB passive 2 test 1 0 kipe kipe 1 855 Fc1_1312.png interleaved diff_cat studied 
1 IB passive 2 test 2 0 beme beme 1 754 Fc1_2123.png interleaved diff_cat novel 
1 IB passive 2 test 3 0 zade zade 1 1652 Fc1_1211.png interleaved diff_cat studied 
1 IB passive 2 test 4 0 zade zade 1 999 Fc1_2221.png interleaved same_cat novel 
1 IB passive 2 test 5 0 beme beme 1 701 Fc1_2111.png interleaved diff_cat novel 
1 IB passive 2 test 6 0 beme beme 1 1138 Fc1_2121.png interleaved same_cat novel 
1 IB passive 2 test 7 0 kipe kipe 1 965 Fc1_2323.png interleaved diff_cat novel 
1 IB passive 2 test 8 0 beme beme 1 826 Fc1_1122.png interleaved diff_cat studied 
1 IB passive 2 test 9 0 beme beme 1 1060 Fc1_1113.png interleaved same_cat studied 
1 IB passive 2 test 10 0 zade zade 1 2023 Fc1_1213.png interleaved diff_cat studied 
1 IB passive 2 test 11 0 kipe kipe 1 691 Fc1_1321.png interleaved diff_cat studied 
1 IB passive 2 test 12 0 zade zade 1 988 Fc1_2211.png interleaved diff_cat novel 
1 IB passive 2 test 13 0 zade zade 1 1007 Fc1_1223.png interleaved same_cat novel 
1 IB passive 2 test 14 0 beme beme 1 914 Fc1_2113.png interleaved diff_cat novel 
1 IB passive 2 test 15 0 kipe kipe 1 785 Fc1_2312.png interleaved diff_cat novel 
1 IB passive 2 test 16 0 zade zade 1 1939 Fc1_2223.png interleaved diff_cat novel 
1 IB passive 2 test 17 0 kipe kipe 1 885 Fc1_2321.png interleaved diff_cat novel 
1 IB passive 2 test 18 0 beme beme 1 698 Fc1_2122.png interleaved diff_cat novel 
1 IB passive 2 test 19 0 kipe kipe 1 692 Fc1_1311.png interleaved diff_cat studied 
1 IB passive 2 test 20 0 kipe kipe 1 1281 Fc1_2311.png interleaved same_cat novel 
1 IB passive 2 test 21 0 beme beme 1 887 Fc1_2112.png interleaved diff_cat novel 
1 IB passive 2 test 22 0 kipe kipe 1 643 Fc1_1322.png interleaved diff_cat studied 
1 IB passive 2 test 23 0 zade zade 1 1403 Fc1_1222.png interleaved diff_cat studied 
1 IB passive 2 test 24 0 beme beme 1 1771 Fc1_1123.png interleaved diff_cat novel 
1 IB passive 2 test 25 0 zade zade 1 1253 Fc1_2213.png interleaved diff_cat novel 
1 IB passive 2 test 26 0 zade zade 1 947 Fc1_2212.png interleaved same_cat novel 
1 IB passive 2 test 27 0 kipe kipe 1 1088 Fc1_1323.png interleaved diff_cat novel 
1 IB passive 2 test 28 0 kipe kipe 1 955 Fc1_2322.png interleaved same_cat novel 
1 IB passive 2 test 29 0 kipe kipe 1 956 Fc1_2313.png interleaved same_cat novel 
1 IB passive 2 test 30 0 kipe kipe 1 885 Fc1_1313.png interleaved same_cat studied 
1 IB passive 2 test 31 0 zade zade 1 714 Fc1_1221.png interleaved diff_cat studied 
1 IB passive 2 test 32 0 zade zade 1 1110 Fc1_1212.png interleaved same_cat studied 
1 IB passive 2 test 33 0 beme beme 1 961 Fc1_1111.png interleaved diff_cat studied 
1 IB passive 2 test 34 0 beme beme 1 1253 Fc1_1112.png interleaved same_cat studied 
1 IB passive 2 test 35 0 beme beme 1 1045 Fc1_1121.png interleaved same_cat studied 
1 IB passive 2 training 0 0 tyfe tyfe 1 1202 Fb1_1313.png blocked NA NA 
1 IB passive 2 training 1 0 vune vune 1 1006 Fb1_1212.png blocked diff_cat NA 
1 IB passive 2 training 2 0 coge coge 1 1100 Fb1_1111.png blocked diff_cat NA 
1 IB passive 2 training 3 0 coge coge 1 1004 Fb1_1111.png blocked same_cat NA 
1 IB passive 2 training 4 0 coge coge 1 1030 Fb1_1112.png blocked same_cat NA 
1 IB passive 2 training 5 0 coge coge 1 812 Fb1_1113.png blocked same_cat NA 
1 IB passive 2 training 6 0 coge coge 1 1017 Fb1_1112.png blocked same_cat NA 
1 IB passive 2 training 7 0 coge coge 1 1370 Fb1_1121.png blocked same_cat NA 
1 IB passive 2 training 8 0 coge coge 1 1143 Fb1_1122.png blocked same_cat NA 
1 IB passive 2 training 9 0 coge coge 1 1208 Fb1_1122.png blocked same_cat NA 
1 IB passive 2 training 10 0 coge coge 1 751 Fb1_1113.png blocked same_cat NA 
1 IB passive 2 training 11 0 coge coge 1 1198 Fb1_1112.png blocked same_cat NA 
1 IB passive 2 training 12 0 coge coge 1 3083 Fb1_1113.png blocked same_cat NA 
1 IB passive 2 training 13 0 tyfe tyfe 1 1544 Fb1_1313.png blocked diff_cat NA 
1 IB passive 2 training 14 0 tyfe tyfe 1 1431 Fb1_1321.png blocked same_cat NA 
1 IB passive 2 training 15 0 tyfe tyfe 1 1454 Fb1_1322.png blocked same_cat NA 
1 IB passive 2 training 16 0 tyfe tyfe 1 1036 Fb1_1313.png blocked same_cat NA 
1 IB passive 2 training 17 0 tyfe tyfe 1 916 Fb1_1311.png blocked same_cat NA 
1 IB passive 2 training 18 0 tyfe tyfe 1 1262 Fb1_1321.png blocked same_cat NA 
1 IB passive 2 training 19 0 tyfe tyfe 1 1058 Fb1_1311.png blocked same_cat NA 
1 IB passive 2 training 20 0 tyfe tyfe 1 1029 Fb1_1312.png blocked same_cat NA 
1 IB passive 2 training 21 0 tyfe tyfe 1 865 Fb1_1312.png blocked same_cat NA 
1 IB passive 2 training 22 0 vune vune 1 907 Fb1_1211.png blocked diff_cat NA 
1 IB passive 2 training 23 0 tyfe tyfe 1 833 Fb1_1322.png blocked diff_cat NA 
1 IB passive 2 training 24 1 tyfe tyfe 1 842 Fb1_1313.png blocked NA NA 
1 IB passive 2 training 25 1 vune vune 1 660 Fb1_1212.png blocked diff_cat NA 
1 IB passive 2 training 26 1 coge coge 1 1383 Fb1_1111.png blocked diff_cat NA 
1 IB passive 2 training 27 1 coge coge 1 1809 Fb1_1111.png blocked same_cat NA 
1 IB passive 2 training 28 1 coge coge 1 1373 Fb1_1112.png blocked same_cat NA 
1 IB passive 2 training 29 1 coge coge 1 1015 Fb1_1113.png blocked same_cat NA 
1 IB passive 2 training 30 1 coge coge 1 690 Fb1_1112.png blocked same_cat NA 
1 IB passive 2 training 31 1 coge coge 1 884 Fb1_1121.png blocked same_cat NA 
1 IB passive 2 training 32 1 coge coge 1 841 Fb1_1122.png blocked same_cat NA 
1 IB passive 2 training 33 1 coge coge 1 1554 Fb1_1122.png blocked same_cat NA 
1 IB passive 2 training 34 1 coge coge 1 1196 Fb1_1113.png blocked same_cat NA 
1 IB passive 2 training 35 1 coge coge 1 1086 Fb1_1112.png blocked same_cat NA 
1 IB passive 2 training 36 1 coge coge 1 2299 Fb1_1113.png blocked same_cat NA 
1 IB passive 2 training 37 1 tyfe tyfe 1 977 Fb1_1313.png blocked diff_cat NA 
1 IB passive 2 training 38 1 tyfe tyfe 1 1115 Fb1_1321.png blocked same_cat NA 
1 IB passive 2 training 39 1 tyfe tyfe 1 705 Fb1_1322.png blocked same_cat NA 
1 IB passive 2 training 40 1 tyfe tyfe 1 895 Fb1_1313.png blocked same_cat NA 
1 IB passive 2 training 41 1 tyfe tyfe 1 924 Fb1_1311.png blocked same_cat NA 
1 IB passive 2 training 42 1 tyfe tyfe 1 1260 Fb1_1321.png blocked same_cat NA 
1 IB passive 2 training 43 1 tyfe tyfe 1 892 Fb1_1311.png blocked same_cat NA 
1 IB passive 2 training 44 1 tyfe tyfe 1 1137 Fb1_1312.png blocked same_cat NA 
1 IB passive 2 training 45 1 tyfe tyfe 1 1797 Fb1_1312.png blocked same_cat NA 
1 IB passive 2 training 46 1 vune vune 1 1284 Fb1_1211.png blocked diff_cat NA 
1 IB passive 2 training 47 1 tyfe tyfe 1 1017 Fb1_1322.png blocked diff_cat NA 
1 IB passive 2 training 48 2 tyfe tyfe 1 803 Fb1_1313.png blocked NA NA 
1 IB passive 2 training 49 2 vune vune 1 915 Fb1_1212.png blocked diff_cat NA 
1 IB passive 2 training 50 2 coge coge 1 1055 Fb1_1111.png blocked diff_cat NA 
1 IB passive 2 training 51 2 coge coge 1 1077 Fb1_1111.png blocked same_cat NA 
1 IB passive 2 training 52 2 coge coge 1 831 Fb1_1112.png blocked same_cat NA 
1 IB passive 2 training 53 2 coge coge 1 1218 Fb1_1113.png blocked same_cat NA 
1 IB passive 2 training 54 2 coge coge 1 832 Fb1_1112.png blocked same_cat NA 
1 IB passive 2 training 55 2 coge coge 1 1075 Fb1_1121.png blocked same_cat NA 
1 IB passive 2 training 56 2 coge coge 1 1020 Fb1_1122.png blocked same_cat NA 
1 IB passive 2 training 57 2 coge coge 1 1189 Fb1_1122.png blocked same_cat NA 
1 IB passive 2 training 58 2 coge coge 1 912 Fb1_1113.png blocked same_cat NA 
1 IB passive 2 training 59 2 coge coge 1 963 Fb1_1112.png blocked same_cat NA 
1 IB passive 2 training 60 2 coge coge 1 791 Fb1_1113.png blocked same_cat NA 
1 IB passive 2 training 61 2 tyfe tyfe 1 1079 Fb1_1313.png blocked diff_cat NA 
1 IB passive 2 training 62 2 tyfe tyfe 1 1246 Fb1_1321.png blocked same_cat NA 
1 IB passive 2 training 63 2 tyfe tyfe 1 863 Fb1_1322.png blocked same_cat NA 
1 IB passive 2 training 64 2 tyfe tyfe 1 822 Fb1_1313.png blocked same_cat NA 
1 IB passive 2 training 65 2 tyfe tyfe 1 983 Fb1_1311.png blocked same_cat NA 
1 IB passive 2 training 66 2 tyfe tyfe 1 1058 Fb1_1321.png blocked same_cat NA 
1 IB passive 2 training 67 2 tyfe tyfe 1 740 Fb1_1311.png blocked same_cat NA 
1 IB passive 2 training 68 2 tyfe tyfe 1 845 Fb1_1312.png blocked same_cat NA 
1 IB passive 2 training 69 2 tyfe tyfe 1 1149 Fb1_1312.png blocked same_cat NA 
1 IB passive 2 training 70 2 vune vune 1 1098 Fb1_1211.png blocked diff_cat NA 
1 IB passive 2 training 71 2 tyfe tyfe 1 1433 Fb1_1322.png blocked diff_cat NA 
1 IB passive 2 training 72 3 tyfe tyfe 1 1210 Fb1_1313.png blocked NA NA 
1 IB passive 2 training 73 3 vune vune 1 870 Fb1_1212.png blocked diff_cat NA 
1 IB passive 2 training 74 3 coge coge 1 1116 Fb1_1111.png blocked diff_cat NA 
1 IB passive 2 training 75 3 coge coge 1 741 Fb1_1111.png blocked same_cat NA 
1 IB passive 2 training 76 3 coge coge 1 1333 Fb1_1112.png blocked same_cat NA 
1 IB passive 2 training 77 3 coge coge 1 1197 Fb1_1113.png blocked same_cat NA 
1 IB passive 2 training 78 3 coge coge 1 1325 Fb1_1112.png blocked same_cat NA 
1 IB passive 2 training 79 3 coge coge 1 913 Fb1_1121.png blocked same_cat NA 
1 IB passive 2 training 80 3 coge coge 1 2345 Fb1_1122.png blocked same_cat NA 
1 IB passive 2 training 81 3 coge coge 1 1904 Fb1_1122.png blocked same_cat NA 
1 IB passive 2 training 82 3 coge coge 1 853 Fb1_1113.png blocked same_cat NA 
1 IB passive 2 training 83 3 coge coge 1 1715 Fb1_1112.png blocked same_cat NA 
1 IB passive 2 training 84 3 coge coge 1 1025 Fb1_1113.png blocked same_cat NA 
1 IB passive 2 training 85 3 tyfe tyfe 1 1239 Fb1_1313.png blocked diff_cat NA 
1 IB passive 2 training 86 3 tyfe tyfe 1 1494 Fb1_1321.png blocked same_cat NA 
1 IB passive 2 training 87 3 tyfe tyfe 1 1208 Fb1_1322.png blocked same_cat NA 
1 IB passive 2 training 88 3 tyfe tyfe 1 2420 Fb1_1313.png blocked same_cat NA 
1 IB passive 2 training 89 3 tyfe tyfe 1 1573 Fb1_1311.png blocked same_cat NA 
1 IB passive 2 training 90 3 tyfe tyfe 1 1106 Fb1_1321.png blocked same_cat NA 
1 IB passive 2 training 91 3 tyfe tyfe 1 1397 Fb1_1311.png blocked same_cat NA 
1 IB passive 2 training 92 3 tyfe tyfe 1 1229 Fb1_1312.png blocked same_cat NA 
1 IB passive 2 training 93 3 tyfe tyfe 1 1085 Fb1_1312.png blocked same_cat NA 
1 IB passive 2 training 94 3 vune vune 1 1847 Fb1_1211.png blocked diff_cat NA 
1 IB passive 2 training 95 3 tyfe tyfe 1 1111 Fb1_1322.png blocked diff_cat NA 
1 IB passive 2 test 0 0 tyfe tyfe 1 1304 Fb1_2311.png blocked NA novel 
1 IB passive 2 test 1 0 tyfe tyfe 1 804 Fb1_2312.png blocked same_cat novel 
1 IB passive 2 test 2 0 coge coge 1 1084 Fb1_2111.png blocked diff_cat novel 
1 IB passive 2 test 3 0 coge coge 1 1189 Fb1_2112.png blocked same_cat novel 
1 IB passive 2 test 4 0 coge coge 1 631 Fb1_1112.png blocked same_cat studied 
1 IB passive 2 test 5 0 tyfe tyfe 1 1044 Fb1_2321.png blocked diff_cat novel 
1 IB passive 2 test 6 0 vune vune 1 693 Fb1_1213.png blocked diff_cat studied 
1 IB passive 2 test 7 0 tyfe tyfe 1 691 Fb1_1322.png blocked diff_cat studied 
1 IB passive 2 test 8 0 tyfe tyfe 1 996 Fb1_1313.png blocked same_cat studied 
1 IB passive 2 test 9 0 tyfe tyfe 1 659 Fb1_2323.png blocked same_cat novel 
1 IB passive 2 test 10 0 tyfe tyfe 1 791 Fb1_1323.png blocked same_cat novel 
1 IB passive 2 test 11 0 coge coge 1 1181 Fb1_2123.png blocked diff_cat novel 
1 IB passive 2 test 12 0 vune vune 1 1582 Fb1_1212.png blocked diff_cat studied 
1 IB passive 2 test 13 0 vune vune 1 1137 Fb1_2212.png blocked same_cat novel 
1 IB passive 2 test 14 0 tyfe tyfe 1 1658 Fb1_1311.png blocked diff_cat studied 
1 IB passive 2 test 15 0 coge coge 1 978 Fb1_2121.png blocked diff_cat novel 
1 IB passive 2 test 16 0 coge coge 1 842 Fb1_1122.png blocked same_cat studied 
1 IB passive 2 test 17 0 coge coge 1 802 Fb1_1123.png blocked same_cat novel 
1 IB passive 2 test 18 0 vune vune 1 635 Fb1_1221.png blocked diff_cat studied 
1 IB passive 2 test 19 0 vune vune 1 1036 Fb1_2222.png blocked same_cat novel 
1 IB passive 2 test 20 0 tyfe tyfe 1 1617 Fb1_1321.png blocked diff_cat studied 
1 IB passive 2 test 21 0 coge coge 1 1249 Fb1_1111.png blocked diff_cat studied 
1 IB passive 2 test 22 0 vune vune 1 1018 Fb1_2211.png blocked diff_cat novel 
1 IB passive 2 test 23 0 vune vune 1 702 Fb1_2223.png blocked same_cat novel 
1 IB passive 2 test 24 0 coge coge 1 834 Fb1_1113.png blocked diff_cat studied 
1 IB passive 2 test 25 0 vune vune 1 1135 Fb1_2221.png blocked diff_cat novel 
1 IB passive 2 test 26 0 coge coge 1 725 Fb1_2113.png blocked diff_cat novel 
1 IB passive 2 test 27 0 vune vune 1 1370 Fb1_1211.png blocked diff_cat studied 
1 IB passive 2 test 28 0 tyfe tyfe 1 661 Fb1_2322.png blocked diff_cat novel 
1 IB passive 2 test 29 0 coge coge 1 762 Fb1_1121.png blocked diff_cat studied 
1 IB passive 2 test 30 0 tyfe tyfe 1 1014 Fb1_2313.png blocked diff_cat novel 
1 IB passive 2 test 31 0 coge coge 1 1068 Fb1_2122.png blocked diff_cat novel 
1 IB passive 2 test 32 0 vune vune 1 805 Fb1_1223.png blocked diff_cat novel 
1 IB passive 2 test 33 0 tyfe tyfe 1 784 Fb1_1312.png blocked diff_cat studied 
1 IB passive 2 test 34 0 vune vune 1 1364 Fb1_1222.png blocked diff_cat studied 
1 IB passive 2 test 35 0 vune vune 1 868 Fb1_2213.png blocked same_cat novel 
10 BI passive 1 training 0 0 zade zade 1 6858 Fb1_1311.png blocked NA NA 
10 BI passive 1 training 1 0 vune vune 1 2089 Fb1_1221.png blocked diff_cat NA 
10 BI passive 1 training 2 0 vune vune 1 2053 Fb1_1213.png blocked same_cat NA 
10 BI passive 1 training 3 0 vune vune 1 1056 Fb1_1221.png blocked same_cat NA 
10 BI passive 1 training 4 0 vune vune 1 1496 Fb1_1211.png blocked same_cat NA 
10 BI passive 1 training 5 0 vune vune 1 1016 Fb1_1222.png blocked same_cat NA 
10 BI passive 1 training 6 0 vune vune 1 1396 Fb1_1221.png blocked same_cat NA 
10 BI passive 1 training 7 0 vune vune 1 1008 Fb1_1213.png blocked same_cat NA 
10 BI passive 1 training 8 0 vune vune 1 1233 Fb1_1212.png blocked same_cat NA 
10 BI passive 1 training 9 0 vune vune 1 1019 Fb1_1212.png blocked same_cat NA 
10 BI passive 1 training 10 0 vune vune 1 1174 Fb1_1211.png blocked same_cat NA 
10 BI passive 1 training 11 0 vune vune 1 1037 Fb1_1211.png blocked same_cat NA 
10 BI passive 1 training 12 0 vune vune 1 895 Fb1_1222.png blocked same_cat NA 
10 BI passive 1 training 13 0 vune vune 1 846 Fb1_1212.png blocked same_cat NA 
10 BI passive 1 training 14 0 zade zade 1 1027 Fb1_1313.png blocked diff_cat NA 
10 BI passive 1 training 15 0 kipe kipe 1 1418 Fb1_1113.png blocked diff_cat NA 
10 BI passive 1 training 16 0 kipe kipe 1 1225 Fb1_1121.png blocked same_cat NA 
10 BI passive 1 training 17 0 kipe kipe 1 1098 Fb1_1112.png blocked same_cat NA 
10 BI passive 1 training 18 0 kipe kipe 1 1413 Fb1_1113.png blocked same_cat NA 
10 BI passive 1 training 19 0 kipe kipe 1 1359 Fb1_1121.png blocked same_cat NA 
10 BI passive 1 training 20 0 kipe kipe 1 1533 Fb1_1112.png blocked same_cat NA 
10 BI passive 1 training 21 0 kipe kipe 1 1337 Fb1_1122.png blocked same_cat NA 
10 BI passive 1 training 22 0 kipe kipe 1 1335 Fb1_1111.png blocked same_cat NA 
10 BI passive 1 training 23 0 kipe kipe 1 946 Fb1_1112.png blocked same_cat NA 
10 BI passive 1 training 24 1 zade zade 1 828 Fb1_1311.png blocked NA NA 
10 BI passive 1 training 25 1 vune vune 1 1405 Fb1_1221.png blocked diff_cat NA 
10 BI passive 1 training 26 1 vune vune 1 1182 Fb1_1213.png blocked same_cat NA 
10 BI passive 1 training 27 1 vune vune 1 1511 Fb1_1221.png blocked same_cat NA 
10 BI passive 1 training 28 1 vune vune 1 1036 Fb1_1211.png blocked same_cat NA 
10 BI passive 1 training 29 1 vune vune 1 1223 Fb1_1222.png blocked same_cat NA 
10 BI passive 1 training 30 1 vune vune 1 1407 Fb1_1221.png blocked same_cat NA 
10 BI passive 1 training 31 1 vune vune 1 775 Fb1_1213.png blocked same_cat NA 
10 BI passive 1 training 32 1 vune vune 1 1350 Fb1_1212.png blocked same_cat NA 
10 BI passive 1 training 33 1 vune vune 1 1160 Fb1_1212.png blocked same_cat NA 
10 BI passive 1 training 34 1 vune vune 1 975 Fb1_1211.png blocked same_cat NA 
10 BI passive 1 training 35 1 vune vune 1 1080 Fb1_1211.png blocked same_cat NA 
10 BI passive 1 training 36 1 vune vune 1 884 Fb1_1222.png blocked same_cat NA 
10 BI passive 1 training 37 1 vune vune 1 1088 Fb1_1212.png blocked same_cat NA 
10 BI passive 1 training 38 1 zade zade 1 798 Fb1_1313.png blocked diff_cat NA 
10 BI passive 1 training 39 1 kipe kipe 1 1314 Fb1_1113.png blocked diff_cat NA 
10 BI passive 1 training 40 1 kipe kipe 1 2143 Fb1_1121.png blocked same_cat NA 
10 BI passive 1 training 41 1 kipe kipe 1 774 Fb1_1112.png blocked same_cat NA 
10 BI passive 1 training 42 1 kipe kipe 1 1062 Fb1_1113.png blocked same_cat NA 
10 BI passive 1 training 43 1 kipe kipe 1 1187 Fb1_1121.png blocked same_cat NA 
10 BI passive 1 training 44 1 kipe kipe 1 1547 Fb1_1112.png blocked same_cat NA 
10 BI passive 1 training 45 1 kipe kipe 1 1127 Fb1_1122.png blocked same_cat NA 
10 BI passive 1 training 46 1 kipe kipe 1 1036 Fb1_1111.png blocked same_cat NA 
10 BI passive 1 training 47 1 kipe kipe 1 1198 Fb1_1112.png blocked same_cat NA 
10 BI passive 1 training 48 2 zade zade 1 1497 Fb1_1311.png blocked NA NA 
10 BI passive 1 training 49 2 vune vune 1 1130 Fb1_1221.png blocked diff_cat NA 
10 BI passive 1 training 50 2 vune vune 1 1058 Fb1_1213.png blocked same_cat NA 
10 BI passive 1 training 51 2 vune vune 1 1130 Fb1_1221.png blocked same_cat NA 
10 BI passive 1 training 52 2 vune vune 1 1006 Fb1_1211.png blocked same_cat NA 
10 BI passive 1 training 53 2 vune vune 1 804 Fb1_1222.png blocked same_cat NA 
10 BI passive 1 training 54 2 vune vune 1 1046 Fb1_1221.png blocked same_cat NA 
10 BI passive 1 training 55 2 vune vune 1 1589 Fb1_1213.png blocked same_cat NA 
10 BI passive 1 training 56 2 vune vune 1 1142 Fb1_1212.png blocked same_cat NA 
10 BI passive 1 training 57 2 vune vune 1 1551 Fb1_1212.png blocked same_cat NA 
10 BI passive 1 training 58 2 vune vune 1 1272 Fb1_1211.png blocked same_cat NA 
10 BI passive 1 training 59 2 vune vune 1 1006 Fb1_1211.png blocked same_cat NA 
10 BI passive 1 training 60 2 vune vune 1 1117 Fb1_1222.png blocked same_cat NA 
10 BI passive 1 training 61 2 vune vune 1 956 Fb1_1212.png blocked same_cat NA 
10 BI passive 1 training 62 2 zade zade 1 956 Fb1_1313.png blocked diff_cat NA 
10 BI passive 1 training 63 2 kipe kipe 1 1374 Fb1_1113.png blocked diff_cat NA 
10 BI passive 1 training 64 2 kipe kipe 1 844 Fb1_1121.png blocked same_cat NA 
10 BI passive 1 training 65 2 kipe kipe 1 1176 Fb1_1112.png blocked same_cat NA 
10 BI passive 1 training 66 2 kipe kipe 1 1028 Fb1_1113.png blocked same_cat NA 
10 BI passive 1 training 67 2 kipe kipe 1 1222 Fb1_1121.png blocked same_cat NA 
10 BI passive 1 training 68 2 kipe kipe 1 1157 Fb1_1112.png blocked same_cat NA 
10 BI passive 1 training 69 2 kipe kipe 1 1380 Fb1_1122.png blocked same_cat NA 
10 BI passive 1 training 70 2 kipe kipe 1 1127 Fb1_1111.png blocked same_cat NA 
10 BI passive 1 training 71 2 kipe kipe 1 1227 Fb1_1112.png blocked same_cat NA 
10 BI passive 1 training 72 3 zade zade 1 1491 Fb1_1311.png blocked NA NA 
10 BI passive 1 training 73 3 vune vune 1 1272 Fb1_1221.png blocked diff_cat NA 
10 BI passive 1 training 74 3 vune vune 1 754 Fb1_1213.png blocked same_cat NA 
10 BI passive 1 training 75 3 vune vune 1 1331 Fb1_1221.png blocked same_cat NA 
10 BI passive 1 training 76 3 vune vune 1 824 Fb1_1211.png blocked same_cat NA 
10 BI passive 1 training 77 3 vune vune 1 1217 Fb1_1222.png blocked same_cat NA 
10 BI passive 1 training 78 3 vune vune 1 1316 Fb1_1221.png blocked same_cat NA 
10 BI passive 1 training 79 3 vune vune 1 1363 Fb1_1213.png blocked same_cat NA 
10 BI passive 1 training 80 3 vune vune 1 1433 Fb1_1212.png blocked same_cat NA 
10 BI passive 1 training 81 3 vune vune 1 1034 Fb1_1212.png blocked same_cat NA 
10 BI passive 1 training 82 3 vune vune 1 906 Fb1_1211.png blocked same_cat NA 
10 BI passive 1 training 83 3 vune vune 1 1620 Fb1_1211.png blocked same_cat NA 
10 BI passive 1 training 84 3 vune vune 1 1305 Fb1_1222.png blocked same_cat NA 
10 BI passive 1 training 85 3 vune vune 1 1149 Fb1_1212.png blocked same_cat NA 
10 BI passive 1 training 86 3 zade zade 1 1180 Fb1_1313.png blocked diff_cat NA 
10 BI passive 1 training 87 3 kipe kipe 1 1000 Fb1_1113.png blocked diff_cat NA 
10 BI passive 1 training 88 3 kipe kipe 1 1092 Fb1_1121.png blocked same_cat NA 
10 BI passive 1 training 89 3 kipe kipe 1 853 Fb1_1112.png blocked same_cat NA 
10 BI passive 1 training 90 3 kipe kipe 1 1159 Fb1_1113.png blocked same_cat NA 
10 BI passive 1 training 91 3 kipe kipe 1 1670 Fb1_1121.png blocked same_cat NA 
10 BI passive 1 training 92 3 kipe kipe 1 1016 Fb1_1112.png blocked same_cat NA 
10 BI passive 1 training 93 3 kipe kipe 1 976 Fb1_1122.png blocked same_cat NA 
10 BI passive 1 training 94 3 kipe kipe 1 896 Fb1_1111.png blocked same_cat NA 
10 BI passive 1 training 95 3 kipe kipe 1 1282 Fb1_1112.png blocked same_cat NA 
10 BI passive 1 test 0 0 kipe kipe 1 3108 Fb1_2113.png blocked NA novel 
10 BI passive 1 test 1 0 vune vune 1 1714 Fb1_2213.png blocked diff_cat novel 
10 BI passive 1 test 2 0 kipe kipe 1 2400 Fb1_1123.png blocked diff_cat novel 
10 BI passive 1 test 3 0 kipe kipe 1 1321 Fb1_2112.png blocked same_cat novel 
10 BI passive 1 test 4 0 vune zade 0 959 Fb1_2322.png blocked diff_cat novel 
10 BI passive 1 test 5 0 kipe kipe 1 3387 Fb1_1121.png blocked diff_cat studied 
10 BI passive 1 test 6 0 vune vune 1 1485 Fb1_1221.png blocked diff_cat studied 
10 BI passive 1 test 7 0 zade zade 1 1590 Fb1_2312.png blocked diff_cat novel 
10 BI passive 1 test 8 0 zade zade 1 2163 Fb1_2323.png blocked same_cat novel 
10 BI passive 1 test 9 0 vune vune 1 1463 Fb1_1222.png blocked diff_cat studied 
10 BI passive 1 test 10 0 vune vune 1 1657 Fb1_2221.png blocked same_cat novel 
10 BI passive 1 test 11 0 kipe kipe 1 908 Fb1_2122.png blocked diff_cat novel 
10 BI passive 1 test 12 0 kipe kipe 1 1437 Fb1_1111.png blocked same_cat studied 
10 BI passive 1 test 13 0 kipe kipe 1 916 Fb1_1122.png blocked same_cat studied 
10 BI passive 1 test 14 0 zade zade 1 948 Fb1_1312.png blocked diff_cat studied 
10 BI passive 1 test 15 0 zade zade 1 713 Fb1_1322.png blocked same_cat studied 
10 BI passive 1 test 16 0 vune vune 1 1043 Fb1_2212.png blocked diff_cat novel 
10 BI passive 1 test 17 0 zade zade 1 787 Fb1_1311.png blocked diff_cat studied 
10 BI passive 1 test 18 0 kipe kipe 1 2891 Fb1_1113.png blocked diff_cat studied 
10 BI passive 1 test 19 0 vune vune 1 3125 Fb1_1213.png blocked diff_cat studied 
10 BI passive 1 test 20 0 vune vune 1 1019 Fb1_1223.png blocked same_cat novel 
10 BI passive 1 test 21 0 zade zade 1 1028 Fb1_1323.png blocked diff_cat novel 
10 BI passive 1 test 22 0 vune vune 1 2144 Fb1_1212.png blocked diff_cat studied 
10 BI passive 1 test 23 0 zade zade 1 755 Fb1_2311.png blocked diff_cat novel 
10 BI passive 1 test 24 0 vune vune 1 1369 Fb1_2223.png blocked diff_cat novel 
10 BI passive 1 test 25 0 kipe kipe 1 1305 Fb1_2121.png blocked diff_cat novel 
10 BI passive 1 test 26 0 zade zade 1 1204 Fb1_2321.png blocked diff_cat novel 
10 BI passive 1 test 27 0 vune vune 1 4062 Fb1_2222.png blocked diff_cat novel 
10 BI passive 1 test 28 0 vune vune 1 956 Fb1_2211.png blocked same_cat novel 
10 BI passive 1 test 29 0 zade zade 1 746 Fb1_1321.png blocked diff_cat studied 
10 BI passive 1 test 30 0 kipe kipe 1 702 Fb1_1112.png blocked diff_cat studied 
10 BI passive 1 test 31 0 zade zade 1 920 Fb1_2313.png blocked diff_cat novel 
10 BI passive 1 test 32 0 zade zade 1 1116 Fb1_1313.png blocked same_cat studied 
10 BI passive 1 test 33 0 kipe kipe 1 1115 Fb1_2111.png blocked diff_cat novel 
10 BI passive 1 test 34 0 kipe kipe 1 2465 Fb1_2123.png blocked same_cat novel 
10 BI passive 1 test 35 0 vune vune 1 1999 Fb1_1211.png blocked diff_cat studied 
10 BI passive 1 training 0 0 beme beme 1 1407 Fc1_1321.png interleaved NA NA 
10 BI passive 1 training 1 0 beme beme 1 1202 Fc1_1311.png interleaved same_cat NA 
10 BI passive 1 training 2 0 beme coge 0 1201 Fc1_1211.png interleaved diff_cat NA 
10 BI passive 1 training 3 0 coge coge 1 1063 Fc1_1221.png interleaved same_cat NA 
10 BI passive 1 training 4 0 beme beme 1 1344 Fc1_1313.png interleaved diff_cat NA 
10 BI passive 1 training 5 0 coge coge 1 1299 Fc1_1213.png interleaved diff_cat NA 
10 BI passive 1 training 6 0 beme beme 1 1038 Fc1_1322.png interleaved diff_cat NA 
10 BI passive 1 training 7 0 tyfe tyfe 1 1088 Fc1_1112.png interleaved diff_cat NA 
10 BI passive 1 training 8 0 beme beme 1 1029 Fc1_1313.png interleaved diff_cat NA 
10 BI passive 1 training 9 0 coge coge 1 2119 Fc1_1222.png interleaved diff_cat NA 
10 BI passive 1 training 10 0 tyfe tyfe 1 1212 Fc1_1121.png interleaved diff_cat NA 
10 BI passive 1 training 11 0 beme beme 1 867 Fc1_1321.png interleaved diff_cat NA 
10 BI passive 1 training 12 0 coge coge 1 1250 Fc1_1222.png interleaved diff_cat NA 
10 BI passive 1 training 13 0 coge coge 1 1169 Fc1_1221.png interleaved same_cat NA 
10 BI passive 1 training 14 0 beme beme 1 1176 Fc1_1321.png interleaved diff_cat NA 
10 BI passive 1 training 15 0 tyfe tyfe 1 1322 Fc1_1113.png interleaved diff_cat NA 
10 BI passive 1 training 16 0 tyfe tyfe 1 1069 Fc1_1111.png interleaved same_cat NA 
10 BI passive 1 training 17 0 tyfe tyfe 1 1007 Fc1_1111.png interleaved same_cat NA 
10 BI passive 1 training 18 0 beme beme 1 2894 Fc1_1322.png interleaved diff_cat NA 
10 BI passive 1 training 19 0 tyfe tyfe 1 2131 Fc1_1111.png interleaved diff_cat NA 
10 BI passive 1 training 20 0 beme beme 1 1332 Fc1_1312.png interleaved diff_cat NA 
10 BI passive 1 training 21 0 coge coge 1 1492 Fc1_1212.png interleaved diff_cat NA 
10 BI passive 1 training 22 0 beme beme 1 1164 Fc1_1313.png interleaved diff_cat NA 
10 BI passive 1 training 23 0 tyfe tyfe 1 947 Fc1_1121.png interleaved diff_cat NA 
10 BI passive 1 training 24 1 beme beme 1 1177 Fc1_1321.png interleaved NA NA 
10 BI passive 1 training 25 1 beme beme 1 1272 Fc1_1311.png interleaved same_cat NA 
10 BI passive 1 training 26 1 coge coge 1 1427 Fc1_1211.png interleaved diff_cat NA 
10 BI passive 1 training 27 1 coge coge 1 1586 Fc1_1221.png interleaved same_cat NA 
10 BI passive 1 training 28 1 beme beme 1 1809 Fc1_1313.png interleaved diff_cat NA 
10 BI passive 1 training 29 1 coge coge 1 1482 Fc1_1213.png interleaved diff_cat NA 
10 BI passive 1 training 30 1 beme beme 1 1158 Fc1_1322.png interleaved diff_cat NA 
10 BI passive 1 training 31 1 tyfe tyfe 1 1523 Fc1_1112.png interleaved diff_cat NA 
10 BI passive 1 training 32 1 beme beme 1 1485 Fc1_1313.png interleaved diff_cat NA 
10 BI passive 1 training 33 1 coge coge 1 1644 Fc1_1222.png interleaved diff_cat NA 
10 BI passive 1 training 34 1 tyfe tyfe 1 1099 Fc1_1121.png interleaved diff_cat NA 
10 BI passive 1 training 35 1 tyfe beme 0 1904 Fc1_1321.png interleaved diff_cat NA 
10 BI passive 1 training 36 1 coge coge 1 948 Fc1_1222.png interleaved diff_cat NA 
10 BI passive 1 training 37 1 coge coge 1 867 Fc1_1221.png interleaved same_cat NA 
10 BI passive 1 training 38 1 beme beme 1 1076 Fc1_1321.png interleaved diff_cat NA 
10 BI passive 1 training 39 1 tyfe tyfe 1 844 Fc1_1113.png interleaved diff_cat NA 
10 BI passive 1 training 40 1 tyfe tyfe 1 885 Fc1_1111.png interleaved same_cat NA 
10 BI passive 1 training 41 1 tyfe tyfe 1 1865 Fc1_1111.png interleaved same_cat NA 
10 BI passive 1 training 42 1 beme beme 1 2859 Fc1_1322.png interleaved diff_cat NA 
10 BI passive 1 training 43 1 tyfe tyfe 1 1475 Fc1_1111.png interleaved diff_cat NA 
10 BI passive 1 training 44 1 beme beme 1 1337 Fc1_1312.png interleaved diff_cat NA 
10 BI passive 1 training 45 1 coge coge 1 1191 Fc1_1212.png interleaved diff_cat NA 
10 BI passive 1 training 46 1 beme beme 1 1049 Fc1_1313.png interleaved diff_cat NA 
10 BI passive 1 training 47 1 tyfe tyfe 1 2050 Fc1_1121.png interleaved diff_cat NA 
10 BI passive 1 training 48 2 beme beme 1 978 Fc1_1321.png interleaved NA NA 
10 BI passive 1 training 49 2 beme beme 1 1099 Fc1_1311.png interleaved same_cat NA 
10 BI passive 1 training 50 2 coge coge 1 1014 Fc1_1211.png interleaved diff_cat NA 
10 BI passive 1 training 51 2 coge coge 1 936 Fc1_1221.png interleaved same_cat NA 
10 BI passive 1 training 52 2 beme beme 1 1158 Fc1_1313.png interleaved diff_cat NA 
10 BI passive 1 training 53 2 coge coge 1 894 Fc1_1213.png interleaved diff_cat NA 
10 BI passive 1 training 54 2 beme beme 1 2426 Fc1_1322.png interleaved diff_cat NA 
10 BI passive 1 training 55 2 tyfe tyfe 1 1093 Fc1_1112.png interleaved diff_cat NA 
10 BI passive 1 training 56 2 beme beme 1 1170 Fc1_1313.png interleaved diff_cat NA 
10 BI passive 1 training 57 2 coge coge 1 1137 Fc1_1222.png interleaved diff_cat NA 
10 BI passive 1 training 58 2 tyfe tyfe 1 1071 Fc1_1121.png interleaved diff_cat NA 
10 BI passive 1 training 59 2 beme beme 1 743 Fc1_1321.png interleaved diff_cat NA 
10 BI passive 1 training 60 2 coge coge 1 933 Fc1_1222.png interleaved diff_cat NA 
10 BI passive 1 training 61 2 coge coge 1 1121 Fc1_1221.png interleaved same_cat NA 
10 BI passive 1 training 62 2 beme beme 1 1082 Fc1_1321.png interleaved diff_cat NA 
10 BI passive 1 training 63 2 tyfe tyfe 1 812 Fc1_1113.png interleaved diff_cat NA 
10 BI passive 1 training 64 2 tyfe tyfe 1 997 Fc1_1111.png interleaved same_cat NA 
10 BI passive 1 training 65 2 tyfe tyfe 1 1067 Fc1_1111.png interleaved same_cat NA 
10 BI passive 1 training 66 2 tyfe beme 0 2186 Fc1_1322.png interleaved diff_cat NA 
10 BI passive 1 training 67 2 tyfe tyfe 1 1292 Fc1_1111.png interleaved diff_cat NA 
10 BI passive 1 training 68 2 beme beme 1 1514 Fc1_1312.png interleaved diff_cat NA 
10 BI passive 1 training 69 2 coge coge 1 1179 Fc1_1212.png interleaved diff_cat NA 
10 BI passive 1 training 70 2 beme beme 1 2462 Fc1_1313.png interleaved diff_cat NA 
10 BI passive 1 training 71 2 tyfe tyfe 1 1259 Fc1_1121.png interleaved diff_cat NA 
10 BI passive 1 training 72 3 beme beme 1 903 Fc1_1321.png interleaved NA NA 
10 BI passive 1 training 73 3 beme beme 1 1705 Fc1_1311.png interleaved same_cat NA 
10 BI passive 1 training 74 3 coge coge 1 1027 Fc1_1211.png interleaved diff_cat NA 
10 BI passive 1 training 75 3 coge coge 1 1174 Fc1_1221.png interleaved same_cat NA 
10 BI passive 1 training 76 3 beme beme 1 854 Fc1_1313.png interleaved diff_cat NA 
10 BI passive 1 training 77 3 coge coge 1 1158 Fc1_1213.png interleaved diff_cat NA 
10 BI passive 1 training 78 3 beme beme 1 1108 Fc1_1322.png interleaved diff_cat NA 
10 BI passive 1 training 79 3 tyfe tyfe 1 1051 Fc1_1112.png interleaved diff_cat NA 
10 BI passive 1 training 80 3 beme beme 1 4314 Fc1_1313.png interleaved diff_cat NA 
10 BI passive 1 training 81 3 coge coge 1 1201 Fc1_1222.png interleaved diff_cat NA 
10 BI passive 1 training 82 3 tyfe tyfe 1 774 Fc1_1121.png interleaved diff_cat NA 
10 BI passive 1 training 83 3 beme beme 1 1861 Fc1_1321.png interleaved diff_cat NA 
10 BI passive 1 training 84 3 coge coge 1 1160 Fc1_1222.png interleaved diff_cat NA 
10 BI passive 1 training 85 3 coge coge 1 887 Fc1_1221.png interleaved same_cat NA 
10 BI passive 1 training 86 3 beme beme 1 1164 Fc1_1321.png interleaved diff_cat NA 
10 BI passive 1 training 87 3 tyfe tyfe 1 1102 Fc1_1113.png interleaved diff_cat NA 
10 BI passive 1 training 88 3 tyfe tyfe 1 776 Fc1_1111.png interleaved same_cat NA 
10 BI passive 1 training 89 3 tyfe tyfe 1 996 Fc1_1111.png interleaved same_cat NA 
10 BI passive 1 training 90 3 beme beme 1 785 Fc1_1322.png interleaved diff_cat NA 
10 BI passive 1 training 91 3 tyfe tyfe 1 1231 Fc1_1111.png interleaved diff_cat NA 
10 BI passive 1 training 92 3 beme beme 1 822 Fc1_1312.png interleaved diff_cat NA 
10 BI passive 1 training 93 3 coge coge 1 669 Fc1_1212.png interleaved diff_cat NA 
10 BI passive 1 training 94 3 beme beme 1 1191 Fc1_1313.png interleaved diff_cat NA 
10 BI passive 1 training 95 3 tyfe tyfe 1 834 Fc1_1121.png interleaved diff_cat NA 
10 BI passive 1 test 0 0 coge coge 1 674 Fc1_2212.png interleaved NA novel 
10 BI passive 1 test 1 0 coge coge 1 633 Fc1_1211.png interleaved same_cat studied 
10 BI passive 1 test 2 0 tyfe tyfe 1 1131 Fc1_2111.png interleaved diff_cat novel 
10 BI passive 1 test 3 0 coge coge 1 755 Fc1_2223.png interleaved diff_cat novel 
10 BI passive 1 test 4 0 coge coge 1 958 Fc1_1212.png interleaved same_cat studied 
10 BI passive 1 test 5 0 beme beme 1 784 Fc1_1323.png interleaved diff_cat novel 
10 BI passive 1 test 6 0 tyfe tyfe 1 845 Fc1_2112.png interleaved diff_cat novel 
10 BI passive 1 test 7 0 coge coge 1 600 Fc1_2222.png interleaved diff_cat novel 
10 BI passive 1 test 8 0 beme beme 1 661 Fc1_1321.png interleaved diff_cat studied 
10 BI passive 1 test 9 0 coge coge 1 3386 Fc1_2213.png interleaved diff_cat novel 
10 BI passive 1 test 10 0 beme beme 1 1353 Fc1_1312.png interleaved diff_cat studied 
10 BI passive 1 test 11 0 coge coge 1 590 Fc1_1222.png interleaved diff_cat studied 
10 BI passive 1 test 12 0 tyfe tyfe 1 936 Fc1_2113.png interleaved diff_cat novel 
10 BI passive 1 test 13 0 tyfe tyfe 1 1808 Fc1_1121.png interleaved same_cat studied 
10 BI passive 1 test 14 0 tyfe tyfe 1 4164 Fc1_1123.png interleaved same_cat novel 
10 BI passive 1 test 15 0 tyfe tyfe 1 1424 Fc1_2122.png interleaved same_cat novel 
10 BI passive 1 test 16 0 beme beme 1 717 Fc1_2313.png interleaved diff_cat novel 
10 BI passive 1 test 17 0 tyfe tyfe 1 682 Fc1_1113.png interleaved diff_cat studied 
10 BI passive 1 test 18 0 tyfe tyfe 1 630 Fc1_1112.png interleaved same_cat studied 
10 BI passive 1 test 19 0 coge coge 1 805 Fc1_1221.png interleaved diff_cat studied 
10 BI passive 1 test 20 0 beme beme 1 1172 Fc1_2321.png interleaved diff_cat novel 
10 BI passive 1 test 21 0 beme beme 1 753 Fc1_2311.png interleaved same_cat novel 
10 BI passive 1 test 22 0 coge coge 1 701 Fc1_1223.png interleaved diff_cat novel 
10 BI passive 1 test 23 0 coge coge 1 880 Fc1_1213.png interleaved same_cat studied 
10 BI passive 1 test 24 0 beme beme 1 1356 Fc1_1322.png interleaved diff_cat studied 
10 BI passive 1 test 25 0 tyfe tyfe 1 846 Fc1_2123.png interleaved diff_cat novel 
10 BI passive 1 test 26 0 tyfe tyfe 1 1576 Fc1_2121.png interleaved same_cat novel 
10 BI passive 1 test 27 0 beme beme 1 775 Fc1_2322.png interleaved diff_cat novel 
10 BI passive 1 test 28 0 beme beme 1 866 Fc1_1313.png interleaved same_cat studied 
10 BI passive 1 test 29 0 tyfe tyfe 1 692 Fc1_1122.png interleaved diff_cat studied 
10 BI passive 1 test 30 0 coge coge 1 724 Fc1_2211.png interleaved diff_cat novel 
10 BI passive 1 test 31 0 beme beme 1 899 Fc1_2323.png interleaved diff_cat novel 
10 BI passive 1 test 32 0 beme beme 1 814 Fc1_2312.png interleaved same_cat novel 
10 BI passive 1 test 33 0 tyfe tyfe 1 654 Fc1_1111.png interleaved diff_cat studied 
10 BI passive 1 test 34 0 beme beme 1 562 Fc1_1311.png interleaved diff_cat studied 
10 BI passive 1 test 35 0 coge coge 1 724 Fc1_2221.png interleaved diff_cat novel 
11 IB passive 2 training 0 0 zade zade 1 3818 Fc1_1311.png interleaved NA NA 
11 IB passive 2 training 1 0 zade zade 1 2143 Fc1_1312.png interleaved same_cat NA 
11 IB passive 2 training 2 0 tyfe tyfe 1 1702 Fc1_1122.png interleaved diff_cat NA 
11 IB passive 2 training 3 0 kipe kipe 1 1125 Fc1_1213.png interleaved diff_cat NA 
11 IB passive 2 training 4 0 zade zade 1 1939 Fc1_1322.png interleaved diff_cat NA 
11 IB passive 2 training 5 0 kipe kipe 1 1431 Fc1_1212.png interleaved diff_cat NA 
11 IB passive 2 training 6 0 zade zade 1 1403 Fc1_1312.png interleaved diff_cat NA 
11 IB passive 2 training 7 0 kipe kipe 1 818 Fc1_1213.png interleaved diff_cat NA 
11 IB passive 2 training 8 0 zade zade 1 973 Fc1_1321.png interleaved diff_cat NA 
11 IB passive 2 training 9 0 tyfe tyfe 1 1273 Fc1_1111.png interleaved diff_cat NA 
11 IB passive 2 training 10 0 tyfe tyfe 1 1385 Fc1_1113.png interleaved same_cat NA 
11 IB passive 2 training 11 0 kipe kipe 1 4063 Fc1_1212.png interleaved diff_cat NA 
11 IB passive 2 training 12 0 tyfe tyfe 1 1863 Fc1_1122.png interleaved diff_cat NA 
11 IB passive 2 training 13 0 zade zade 1 1330 Fc1_1312.png interleaved diff_cat NA 
11 IB passive 2 training 14 0 kipe kipe 1 1823 Fc1_1222.png interleaved diff_cat NA 
11 IB passive 2 training 15 0 zade zade 1 940 Fc1_1322.png interleaved diff_cat NA 
11 IB passive 2 training 16 0 zade zade 1 4671 Fc1_1311.png interleaved same_cat NA 
11 IB passive 2 training 17 0 zade kipe 0 4091 Fc1_1222.png interleaved diff_cat NA 
11 IB passive 2 training 18 0 kipe kipe 1 2343 Fc1_1221.png interleaved same_cat NA 
11 IB passive 2 training 19 0 tyfe tyfe 1 2067 Fc1_1113.png interleaved diff_cat NA 
11 IB passive 2 training 20 0 zade zade 1 1596 Fc1_1321.png interleaved diff_cat NA 
11 IB passive 2 training 21 0 tyfe tyfe 1 1436 Fc1_1112.png interleaved diff_cat NA 
11 IB passive 2 training 22 0 zade zade 1 1308 Fc1_1313.png interleaved diff_cat NA 
11 IB passive 2 training 23 0 kipe tyfe 0 938 Fc1_1111.png interleaved diff_cat NA 
11 IB passive 2 training 24 1 zade zade 1 839 Fc1_1311.png interleaved NA NA 
11 IB passive 2 training 25 1 zade zade 1 1171 Fc1_1312.png interleaved same_cat NA 
11 IB passive 2 training 26 1 tyfe tyfe 1 1074 Fc1_1122.png interleaved diff_cat NA 
11 IB passive 2 training 27 1 kipe kipe 1 1093 Fc1_1213.png interleaved diff_cat NA 
11 IB passive 2 training 28 1 zade zade 1 2589 Fc1_1322.png interleaved diff_cat NA 
11 IB passive 2 training 29 1 tyfe kipe 0 4182 Fc1_1212.png interleaved diff_cat NA 
11 IB passive 2 training 30 1 zade zade 1 2006 Fc1_1312.png interleaved diff_cat NA 
11 IB passive 2 training 31 1 kipe kipe 1 1227 Fc1_1213.png interleaved diff_cat NA 
11 IB passive 2 training 32 1 zade zade 1 1534 Fc1_1321.png interleaved diff_cat NA 
11 IB passive 2 training 33 1 tyfe tyfe 1 1624 Fc1_1111.png interleaved diff_cat NA 
11 IB passive 2 training 34 1 tyfe tyfe 1 2412 Fc1_1113.png interleaved same_cat NA 
11 IB passive 2 training 35 1 kipe kipe 1 2901 Fc1_1212.png interleaved diff_cat NA 
11 IB passive 2 training 36 1 zade tyfe 0 2543 Fc1_1122.png interleaved diff_cat NA 
11 IB passive 2 training 37 1 zade zade 1 1114 Fc1_1312.png interleaved diff_cat NA 
11 IB passive 2 training 38 1 kipe kipe 1 1310 Fc1_1222.png interleaved diff_cat NA 
11 IB passive 2 training 39 1 zade zade 1 1295 Fc1_1322.png interleaved diff_cat NA 
11 IB passive 2 training 40 1 zade zade 1 1245 Fc1_1311.png interleaved same_cat NA 
11 IB passive 2 training 41 1 kipe kipe 1 1951 Fc1_1222.png interleaved diff_cat NA 
11 IB passive 2 training 42 1 kipe kipe 1 1396 Fc1_1221.png interleaved same_cat NA 
11 IB passive 2 training 43 1 tyfe tyfe 1 2402 Fc1_1113.png interleaved diff_cat NA 
11 IB passive 2 training 44 1 zade zade 1 897 Fc1_1321.png interleaved diff_cat NA 
11 IB passive 2 training 45 1 tyfe tyfe 1 1186 Fc1_1112.png interleaved diff_cat NA 
11 IB passive 2 training 46 1 zade zade 1 1715 Fc1_1313.png interleaved diff_cat NA 
11 IB passive 2 training 47 1 tyfe tyfe 1 4005 Fc1_1111.png interleaved diff_cat NA 
11 IB passive 2 training 48 2 zade zade 1 2120 Fc1_1311.png interleaved NA NA 
11 IB passive 2 training 49 2 zade zade 1 1165 Fc1_1312.png interleaved same_cat NA 
11 IB passive 2 training 50 2 tyfe tyfe 1 1615 Fc1_1122.png interleaved diff_cat NA 
11 IB passive 2 training 51 2 kipe kipe 1 1418 Fc1_1213.png interleaved diff_cat NA 
11 IB passive 2 training 52 2 zade zade 1 1907 Fc1_1322.png interleaved diff_cat NA 
11 IB passive 2 training 53 2 kipe kipe 1 2119 Fc1_1212.png interleaved diff_cat NA 
11 IB passive 2 training 54 2 zade zade 1 1638 Fc1_1312.png interleaved diff_cat NA 
11 IB passive 2 training 55 2 kipe kipe 1 1390 Fc1_1213.png interleaved diff_cat NA 
11 IB passive 2 training 56 2 zade zade 1 1552 Fc1_1321.png interleaved diff_cat NA 
11 IB passive 2 training 57 2 tyfe tyfe 1 1608 Fc1_1111.png interleaved diff_cat NA 
11 IB passive 2 training 58 2 tyfe tyfe 1 1656 Fc1_1113.png interleaved same_cat NA 
11 IB passive 2 training 59 2 tyfe kipe 0 2027 Fc1_1212.png interleaved diff_cat NA 
11 IB passive 2 training 60 2 tyfe tyfe 1 1256 Fc1_1122.png interleaved diff_cat NA 
11 IB passive 2 training 61 2 zade zade 1 1450 Fc1_1312.png interleaved diff_cat NA 
11 IB passive 2 training 62 2 kipe kipe 1 1859 Fc1_1222.png interleaved diff_cat NA 
11 IB passive 2 training 63 2 zade zade 1 1788 Fc1_1322.png interleaved diff_cat NA 
11 IB passive 2 training 64 2 zade zade 1 1944 Fc1_1311.png interleaved same_cat NA 
11 IB passive 2 training 65 2 kipe kipe 1 2449 Fc1_1222.png interleaved diff_cat NA 
11 IB passive 2 training 66 2 kipe kipe 1 1901 Fc1_1221.png interleaved same_cat NA 
11 IB passive 2 training 67 2 tyfe tyfe 1 1506 Fc1_1113.png interleaved diff_cat NA 
11 IB passive 2 training 68 2 zade zade 1 1081 Fc1_1321.png interleaved diff_cat NA 
11 IB passive 2 training 69 2 tyfe tyfe 1 2012 Fc1_1112.png interleaved diff_cat NA 
11 IB passive 2 training 70 2 zade zade 1 1529 Fc1_1313.png interleaved diff_cat NA 
11 IB passive 2 training 71 2 tyfe tyfe 1 1853 Fc1_1111.png interleaved diff_cat NA 
11 IB passive 2 training 72 3 zade zade 1 1565 Fc1_1311.png interleaved NA NA 
11 IB passive 2 training 73 3 zade zade 1 1531 Fc1_1312.png interleaved same_cat NA 
11 IB passive 2 training 74 3 tyfe tyfe 1 1522 Fc1_1122.png interleaved diff_cat NA 
11 IB passive 2 training 75 3 kipe kipe 1 2429 Fc1_1213.png interleaved diff_cat NA 
11 IB passive 2 training 76 3 zade zade 1 1413 Fc1_1322.png interleaved diff_cat NA 
11 IB passive 2 training 77 3 kipe kipe 1 1722 Fc1_1212.png interleaved diff_cat NA 
11 IB passive 2 training 78 3 zade zade 1 1185 Fc1_1312.png interleaved diff_cat NA 
11 IB passive 2 training 79 3 kipe kipe 1 1218 Fc1_1213.png interleaved diff_cat NA 
11 IB passive 2 training 80 3 zade zade 1 1269 Fc1_1321.png interleaved diff_cat NA 
11 IB passive 2 training 81 3 tyfe tyfe 1 1492 Fc1_1111.png interleaved diff_cat NA 
11 IB passive 2 training 82 3 tyfe tyfe 1 728 Fc1_1113.png interleaved same_cat NA 
11 IB passive 2 training 83 3 kipe kipe 1 1127 Fc1_1212.png interleaved diff_cat NA 
11 IB passive 2 training 84 3 tyfe tyfe 1 1673 Fc1_1122.png interleaved diff_cat NA 
11 IB passive 2 training 85 3 zade zade 1 1703 Fc1_1312.png interleaved diff_cat NA 
11 IB passive 2 training 86 3 kipe kipe 1 1196 Fc1_1222.png interleaved diff_cat NA 
11 IB passive 2 training 87 3 zade zade 1 1719 Fc1_1322.png interleaved diff_cat NA 
11 IB passive 2 training 88 3 zade zade 1 1537 Fc1_1311.png interleaved same_cat NA 
11 IB passive 2 training 89 3 kipe kipe 1 2200 Fc1_1222.png interleaved diff_cat NA 
11 IB passive 2 training 90 3 kipe kipe 1 1704 Fc1_1221.png interleaved same_cat NA 
11 IB passive 2 training 91 3 tyfe tyfe 1 1390 Fc1_1113.png interleaved diff_cat NA 
11 IB passive 2 training 92 3 zade zade 1 1122 Fc1_1321.png interleaved diff_cat NA 
11 IB passive 2 training 93 3 tyfe tyfe 1 1349 Fc1_1112.png interleaved diff_cat NA 
11 IB passive 2 training 94 3 zade zade 1 897 Fc1_1313.png interleaved diff_cat NA 
11 IB passive 2 training 95 3 tyfe tyfe 1 1136 Fc1_1111.png interleaved diff_cat NA 
11 IB passive 2 test 0 0 zade zade 1 1431 Fc1_2323.png interleaved NA novel 
11 IB passive 2 test 1 0 kipe kipe 1 951 Fc1_2222.png interleaved diff_cat novel 
11 IB passive 2 test 2 0 zade zade 1 1372 Fc1_1311.png interleaved diff_cat studied 
11 IB passive 2 test 3 0 kipe kipe 1 585 Fc1_1223.png interleaved diff_cat novel 
11 IB passive 2 test 4 0 zade zade 1 1404 Fc1_2321.png interleaved diff_cat novel 
11 IB passive 2 test 5 0 kipe kipe 1 729 Fc1_1212.png interleaved diff_cat studied 
11 IB passive 2 test 6 0 kipe kipe 1 1237 Fc1_1221.png interleaved same_cat studied 
11 IB passive 2 test 7 0 zade zade 1 1457 Fc1_1312.png interleaved diff_cat studied 
11 IB passive 2 test 8 0 zade zade 1 970 Fc1_2322.png interleaved same_cat novel 
11 IB passive 2 test 9 0 tyfe tyfe 1 1259 Fc1_2122.png interleaved diff_cat novel 
11 IB passive 2 test 10 0 tyfe tyfe 1 1649 Fc1_2123.png interleaved same_cat novel 
11 IB passive 2 test 11 0 zade zade 1 858 Fc1_1321.png interleaved diff_cat studied 
11 IB passive 2 test 12 0 tyfe tyfe 1 897 Fc1_1113.png interleaved diff_cat studied 
11 IB passive 2 test 13 0 kipe kipe 1 1182 Fc1_1211.png interleaved diff_cat studied 
11 IB passive 2 test 14 0 zade zade 1 928 Fc1_2313.png interleaved diff_cat novel 
11 IB passive 2 test 15 0 kipe kipe 1 1425 Fc1_1213.png interleaved diff_cat studied 
11 IB passive 2 test 16 0 kipe kipe 1 1423 Fc1_2223.png interleaved same_cat novel 
11 IB passive 2 test 17 0 tyfe tyfe 1 1425 Fc1_1123.png interleaved diff_cat novel 
11 IB passive 2 test 18 0 kipe kipe 1 1345 Fc1_2221.png interleaved diff_cat novel 
11 IB passive 2 test 19 0 tyfe tyfe 1 999 Fc1_2111.png interleaved diff_cat novel 
11 IB passive 2 test 20 0 tyfe tyfe 1 1172 Fc1_1122.png interleaved same_cat studied 
11 IB passive 2 test 21 0 tyfe tyfe 1 1377 Fc1_1121.png interleaved same_cat studied 
11 IB passive 2 test 22 0 zade zade 1 1008 Fc1_2311.png interleaved diff_cat novel 
11 IB passive 2 test 23 0 zade zade 1 1083 Fc1_1323.png interleaved same_cat novel 
11 IB passive 2 test 24 0 tyfe tyfe 1 1389 Fc1_1112.png interleaved diff_cat studied 
11 IB passive 2 test 25 0 tyfe tyfe 1 1381 Fc1_2112.png interleaved same_cat novel 
11 IB passive 2 test 26 0 tyfe tyfe 1 846 Fc1_1111.png interleaved same_cat studied 
11 IB passive 2 test 27 0 tyfe tyfe 1 1010 Fc1_2113.png interleaved same_cat novel 
11 IB passive 2 test 28 0 kipe kipe 1 1504 Fc1_2212.png interleaved diff_cat novel 
11 IB passive 2 test 29 0 zade zade 1 1263 Fc1_1322.png interleaved diff_cat studied 
11 IB passive 2 test 30 0 zade zade 1 1818 Fc1_1313.png interleaved same_cat studied 
11 IB passive 2 test 31 0 kipe kipe 1 2039 Fc1_1222.png interleaved diff_cat studied 
11 IB passive 2 test 32 0 zade zade 1 1614 Fc1_2312.png interleaved diff_cat novel 
11 IB passive 2 test 33 0 tyfe tyfe 1 1252 Fc1_2121.png interleaved diff_cat novel 
11 IB passive 2 test 34 0 kipe kipe 1 1106 Fc1_2213.png interleaved diff_cat novel 
11 IB passive 2 test 35 0 kipe kipe 1 1328 Fc1_2211.png interleaved same_cat novel 
11 IB passive 2 training 0 0 coge coge 1 1721 Fb1_1212.png blocked NA NA 
11 IB passive 2 training 1 0 coge coge 1 1400 Fb1_1212.png blocked same_cat NA 
11 IB passive 2 training 2 0 vune vune 1 1202 Fb1_1122.png blocked diff_cat NA 
11 IB passive 2 training 3 0 vune vune 1 684 Fb1_1121.png blocked same_cat NA 
11 IB passive 2 training 4 0 vune vune 1 1473 Fb1_1112.png blocked same_cat NA 
11 IB passive 2 training 5 0 vune vune 1 1428 Fb1_1112.png blocked same_cat NA 
11 IB passive 2 training 6 0 beme beme 1 1476 Fb1_1321.png blocked diff_cat NA 
11 IB passive 2 training 7 0 coge beme 0 1003 Fb1_1312.png blocked same_cat NA 
11 IB passive 2 training 8 0 beme beme 1 1645 Fb1_1322.png blocked same_cat NA 
11 IB passive 2 training 9 0 beme beme 1 1547 Fb1_1311.png blocked same_cat NA 
11 IB passive 2 training 10 0 beme beme 1 1515 Fb1_1321.png blocked same_cat NA 
11 IB passive 2 training 11 0 beme beme 1 1231 Fb1_1311.png blocked same_cat NA 
11 IB passive 2 training 12 0 beme beme 1 920 Fb1_1313.png blocked same_cat NA 
11 IB passive 2 training 13 0 beme beme 1 1287 Fb1_1321.png blocked same_cat NA 
11 IB passive 2 training 14 0 beme beme 1 1010 Fb1_1313.png blocked same_cat NA 
11 IB passive 2 training 15 0 beme beme 1 2111 Fb1_1311.png blocked same_cat NA 
11 IB passive 2 training 16 0 beme beme 1 1446 Fb1_1313.png blocked same_cat NA 
11 IB passive 2 training 17 0 beme beme 1 1434 Fb1_1312.png blocked same_cat NA 
11 IB passive 2 training 18 0 coge coge 1 1522 Fb1_1221.png blocked diff_cat NA 
11 IB passive 2 training 19 0 coge coge 1 747 Fb1_1211.png blocked same_cat NA 
11 IB passive 2 training 20 0 vune vune 1 1651 Fb1_1111.png blocked diff_cat NA 
11 IB passive 2 training 21 0 beme beme 1 1300 Fb1_1312.png blocked diff_cat NA 
11 IB passive 2 training 22 0 vune vune 1 893 Fb1_1122.png blocked diff_cat NA 
11 IB passive 2 training 23 0 vune vune 1 1866 Fb1_1113.png blocked same_cat NA 
11 IB passive 2 training 24 1 coge coge 1 954 Fb1_1212.png blocked NA NA 
11 IB passive 2 training 25 1 coge coge 1 1572 Fb1_1212.png blocked same_cat NA 
11 IB passive 2 training 26 1 vune vune 1 1694 Fb1_1122.png blocked diff_cat NA 
11 IB passive 2 training 27 1 vune vune 1 1278 Fb1_1121.png blocked same_cat NA 
11 IB passive 2 training 28 1 vune vune 1 1204 Fb1_1112.png blocked same_cat NA 
11 IB passive 2 training 29 1 vune vune 1 1134 Fb1_1112.png blocked same_cat NA 
11 IB passive 2 training 30 1 beme beme 1 1453 Fb1_1321.png blocked diff_cat NA 
11 IB passive 2 training 31 1 beme beme 1 1042 Fb1_1312.png blocked same_cat NA 
11 IB passive 2 training 32 1 beme beme 1 1298 Fb1_1322.png blocked same_cat NA 
11 IB passive 2 training 33 1 beme beme 1 1128 Fb1_1311.png blocked same_cat NA 
11 IB passive 2 training 34 1 beme beme 1 1487 Fb1_1321.png blocked same_cat NA 
11 IB passive 2 training 35 1 beme beme 1 1283 Fb1_1311.png blocked same_cat NA 
11 IB passive 2 training 36 1 beme beme 1 1068 Fb1_1313.png blocked same_cat NA 
11 IB passive 2 training 37 1 beme beme 1 1091 Fb1_1321.png blocked same_cat NA 
11 IB passive 2 training 38 1 beme beme 1 1379 Fb1_1313.png blocked same_cat NA 
11 IB passive 2 training 39 1 beme beme 1 1368 Fb1_1311.png blocked same_cat NA 
11 IB passive 2 training 40 1 beme beme 1 1993 Fb1_1313.png blocked same_cat NA 
11 IB passive 2 training 41 1 beme beme 1 1755 Fb1_1312.png blocked same_cat NA 
11 IB passive 2 training 42 1 coge coge 1 1244 Fb1_1221.png blocked diff_cat NA 
11 IB passive 2 training 43 1 coge coge 1 1727 Fb1_1211.png blocked same_cat NA 
11 IB passive 2 training 44 1 vune vune 1 1225 Fb1_1111.png blocked diff_cat NA 
11 IB passive 2 training 45 1 beme beme 1 1527 Fb1_1312.png blocked diff_cat NA 
11 IB passive 2 training 46 1 vune vune 1 1101 Fb1_1122.png blocked diff_cat NA 
11 IB passive 2 training 47 1 vune vune 1 1707 Fb1_1113.png blocked same_cat NA 
11 IB passive 2 training 48 2 coge coge 1 862 Fb1_1212.png blocked NA NA 
11 IB passive 2 training 49 2 coge coge 1 733 Fb1_1212.png blocked same_cat NA 
11 IB passive 2 training 50 2 vune vune 1 1562 Fb1_1122.png blocked diff_cat NA 
11 IB passive 2 training 51 2 vune vune 1 1376 Fb1_1121.png blocked same_cat NA 
11 IB passive 2 training 52 2 vune vune 1 1225 Fb1_1112.png blocked same_cat NA 
11 IB passive 2 training 53 2 vune vune 1 2333 Fb1_1112.png blocked same_cat NA 
11 IB passive 2 training 54 2 beme beme 1 1172 Fb1_1321.png blocked diff_cat NA 
11 IB passive 2 training 55 2 beme beme 1 1297 Fb1_1312.png blocked same_cat NA 
11 IB passive 2 training 56 2 beme beme 1 1155 Fb1_1322.png blocked same_cat NA 
11 IB passive 2 training 57 2 beme beme 1 1137 Fb1_1311.png blocked same_cat NA 
11 IB passive 2 training 58 2 beme beme 1 1688 Fb1_1321.png blocked same_cat NA 
11 IB passive 2 training 59 2 beme beme 1 1023 Fb1_1311.png blocked same_cat NA 
11 IB passive 2 training 60 2 beme beme 1 1455 Fb1_1313.png blocked same_cat NA 
11 IB passive 2 training 61 2 beme beme 1 1450 Fb1_1321.png blocked same_cat NA 
11 IB passive 2 training 62 2 beme beme 1 1020 Fb1_1313.png blocked same_cat NA 
11 IB passive 2 training 63 2 beme beme 1 1492 Fb1_1311.png blocked same_cat NA 
11 IB passive 2 training 64 2 beme beme 1 1270 Fb1_1313.png blocked same_cat NA 
11 IB passive 2 training 65 2 beme beme 1 1235 Fb1_1312.png blocked same_cat NA 
11 IB passive 2 training 66 2 coge coge 1 1131 Fb1_1221.png blocked diff_cat NA 
11 IB passive 2 training 67 2 coge coge 1 992 Fb1_1211.png blocked same_cat NA 
11 IB passive 2 training 68 2 vune vune 1 887 Fb1_1111.png blocked diff_cat NA 
11 IB passive 2 training 69 2 vune beme 0 1306 Fb1_1312.png blocked diff_cat NA 
11 IB passive 2 training 70 2 vune vune 1 882 Fb1_1122.png blocked diff_cat NA 
11 IB passive 2 training 71 2 vune vune 1 749 Fb1_1113.png blocked same_cat NA 
11 IB passive 2 training 72 3 coge coge 1 813 Fb1_1212.png blocked NA NA 
11 IB passive 2 training 73 3 coge coge 1 1330 Fb1_1212.png blocked same_cat NA 
11 IB passive 2 training 74 3 vune vune 1 980 Fb1_1122.png blocked diff_cat NA 
11 IB passive 2 training 75 3 vune vune 1 893 Fb1_1121.png blocked same_cat NA 
11 IB passive 2 training 76 3 vune vune 1 858 Fb1_1112.png blocked same_cat NA 
11 IB passive 2 training 77 3 vune vune 1 836 Fb1_1112.png blocked same_cat NA 
11 IB passive 2 training 78 3 beme beme 1 1056 Fb1_1321.png blocked diff_cat NA 
11 IB passive 2 training 79 3 beme beme 1 1345 Fb1_1312.png blocked same_cat NA 
11 IB passive 2 training 80 3 beme beme 1 1269 Fb1_1322.png blocked same_cat NA 
11 IB passive 2 training 81 3 beme beme 1 1383 Fb1_1311.png blocked same_cat NA 
11 IB passive 2 training 82 3 beme beme 1 1013 Fb1_1321.png blocked same_cat NA 
11 IB passive 2 training 83 3 beme beme 1 1148 Fb1_1311.png blocked same_cat NA 
11 IB passive 2 training 84 3 beme beme 1 1168 Fb1_1313.png blocked same_cat NA 
11 IB passive 2 training 85 3 beme beme 1 1129 Fb1_1321.png blocked same_cat NA 
11 IB passive 2 training 86 3 beme beme 1 648 Fb1_1313.png blocked same_cat NA 
11 IB passive 2 training 87 3 beme beme 1 1062 Fb1_1311.png blocked same_cat NA 
11 IB passive 2 training 88 3 beme beme 1 1770 Fb1_1313.png blocked same_cat NA 
11 IB passive 2 training 89 3 beme beme 1 1630 Fb1_1312.png blocked same_cat NA 
11 IB passive 2 training 90 3 coge coge 1 972 Fb1_1221.png blocked diff_cat NA 
11 IB passive 2 training 91 3 coge coge 1 1241 Fb1_1211.png blocked same_cat NA 
11 IB passive 2 training 92 3 vune vune 1 2782 Fb1_1111.png blocked diff_cat NA 
11 IB passive 2 training 93 3 beme beme 1 1205 Fb1_1312.png blocked diff_cat NA 
11 IB passive 2 training 94 3 vune vune 1 1390 Fb1_1122.png blocked diff_cat NA 
11 IB passive 2 training 95 3 vune vune 1 3859 Fb1_1113.png blocked same_cat NA 
11 IB passive 2 test 0 0 coge coge 1 1449 Fb1_2221.png blocked NA novel 
11 IB passive 2 test 1 0 vune vune 1 770 Fb1_2121.png blocked diff_cat novel 
11 IB passive 2 test 2 0 coge coge 1 1014 Fb1_1211.png blocked diff_cat studied 
11 IB passive 2 test 3 0 coge coge 1 828 Fb1_2212.png blocked same_cat novel 
11 IB passive 2 test 4 0 beme beme 1 802 Fb1_1323.png blocked diff_cat novel 
11 IB passive 2 test 5 0 coge coge 1 788 Fb1_2223.png blocked diff_cat novel 
11 IB passive 2 test 6 0 beme beme 1 1074 Fb1_1313.png blocked diff_cat studied 
11 IB passive 2 test 7 0 coge coge 1 1013 Fb1_1223.png blocked diff_cat novel 
11 IB passive 2 test 8 0 coge coge 1 1125 Fb1_2213.png blocked same_cat novel 
11 IB passive 2 test 9 0 beme beme 1 1142 Fb1_2321.png blocked diff_cat novel 
11 IB passive 2 test 10 0 vune vune 1 900 Fb1_1113.png blocked diff_cat studied 
11 IB passive 2 test 11 0 beme beme 1 742 Fb1_2313.png blocked diff_cat novel 
11 IB passive 2 test 12 0 vune vune 1 942 Fb1_2113.png blocked diff_cat novel 
11 IB passive 2 test 13 0 coge coge 1 1699 Fb1_1222.png blocked diff_cat studied 
11 IB passive 2 test 14 0 vune vune 1 707 Fb1_2112.png blocked diff_cat novel 
11 IB passive 2 test 15 0 vune vune 1 1454 Fb1_1121.png blocked same_cat studied 
11 IB passive 2 test 16 0 vune vune 1 1075 Fb1_1122.png blocked same_cat studied 
11 IB passive 2 test 17 0 beme beme 1 900 Fb1_1311.png blocked diff_cat studied 
11 IB passive 2 test 18 0 coge coge 1 1088 Fb1_2222.png blocked diff_cat novel 
11 IB passive 2 test 19 0 coge coge 1 1156 Fb1_1221.png blocked same_cat studied 
11 IB passive 2 test 20 0 beme beme 1 1511 Fb1_1322.png blocked diff_cat studied 
11 IB passive 2 test 21 0 beme beme 1 1729 Fb1_2322.png blocked same_cat novel 
11 IB passive 2 test 22 0 beme beme 1 1657 Fb1_2311.png blocked same_cat novel 
11 IB passive 2 test 23 0 vune vune 1 1223 Fb1_1111.png blocked diff_cat studied 
11 IB passive 2 test 24 0 vune vune 1 920 Fb1_2123.png blocked same_cat novel 
11 IB passive 2 test 25 0 beme beme 1 2297 Fb1_1312.png blocked diff_cat studied 
11 IB passive 2 test 26 0 coge coge 1 1460 Fb1_1212.png blocked diff_cat studied 
11 IB passive 2 test 27 0 coge coge 1 1175 Fb1_1213.png blocked same_cat studied 
11 IB passive 2 test 28 0 vune vune 1 1079 Fb1_2111.png blocked diff_cat novel 
11 IB passive 2 test 29 0 vune vune 1 1148 Fb1_1112.png blocked same_cat studied 
11 IB passive 2 test 30 0 beme beme 1 1018 Fb1_2323.png blocked diff_cat novel 
11 IB passive 2 test 31 0 coge coge 1 911 Fb1_2211.png blocked diff_cat novel 
11 IB passive 2 test 32 0 vune vune 1 921 Fb1_1123.png blocked diff_cat novel 
11 IB passive 2 test 33 0 vune vune 1 897 Fb1_2122.png blocked same_cat novel 
11 IB passive 2 test 34 0 beme beme 1 1652 Fb1_1321.png blocked diff_cat studied 
11 IB passive 2 test 35 0 beme beme 1 1012 Fb1_2312.png blocked same_cat novel 
12 BI passive 2 training 0 0 vune vune 1 2059 Fc1_1112.png blocked NA NA 
12 BI passive 2 training 1 0 tyfe tyfe 1 1109 Fc1_1313.png blocked diff_cat NA 
12 BI passive 2 training 2 0 tyfe tyfe 1 1219 Fc1_1311.png blocked same_cat NA 
12 BI passive 2 training 3 0 tyfe tyfe 1 957 Fc1_1321.png blocked same_cat NA 
12 BI passive 2 training 4 0 tyfe tyfe 1 1158 Fc1_1311.png blocked same_cat NA 
12 BI passive 2 training 5 0 tyfe tyfe 1 1117 Fc1_1313.png blocked same_cat NA 
12 BI passive 2 training 6 0 tyfe tyfe 1 1786 Fc1_1322.png blocked same_cat NA 
12 BI passive 2 training 7 0 vune vune 1 2004 Fc1_1121.png blocked diff_cat NA 
12 BI passive 2 training 8 0 vune vune 1 1408 Fc1_1113.png blocked same_cat NA 
12 BI passive 2 training 9 0 zade zade 1 938 Fc1_1222.png blocked diff_cat NA 
12 BI passive 2 training 10 0 zade zade 1 1102 Fc1_1221.png blocked same_cat NA 
12 BI passive 2 training 11 0 zade zade 1 906 Fc1_1213.png blocked same_cat NA 
12 BI passive 2 training 12 0 zade zade 1 784 Fc1_1213.png blocked same_cat NA 
12 BI passive 2 training 13 0 zade zade 1 824 Fc1_1221.png blocked same_cat NA 
12 BI passive 2 training 14 0 zade zade 1 835 Fc1_1212.png blocked same_cat NA 
12 BI passive 2 training 15 0 zade zade 1 1412 Fc1_1211.png blocked same_cat NA 
12 BI passive 2 training 16 0 zade zade 1 834 Fc1_1213.png blocked same_cat NA 
12 BI passive 2 training 17 0 zade zade 1 804 Fc1_1211.png blocked same_cat NA 
12 BI passive 2 training 18 0 zade zade 1 1564 Fc1_1211.png blocked same_cat NA 
12 BI passive 2 training 19 0 tyfe tyfe 1 898 Fc1_1313.png blocked diff_cat NA 
12 BI passive 2 training 20 0 zade zade 1 1087 Fc1_1212.png blocked diff_cat NA 
12 BI passive 2 training 21 0 vune vune 1 935 Fc1_1122.png blocked diff_cat NA 
12 BI passive 2 training 22 0 vune vune 1 1214 Fc1_1121.png blocked same_cat NA 
12 BI passive 2 training 23 0 vune vune 1 767 Fc1_1112.png blocked same_cat NA 
12 BI passive 2 training 24 1 vune vune 1 1090 Fc1_1112.png blocked NA NA 
12 BI passive 2 training 25 1 tyfe tyfe 1 1056 Fc1_1313.png blocked diff_cat NA 
12 BI passive 2 training 26 1 tyfe tyfe 1 1102 Fc1_1311.png blocked same_cat NA 
12 BI passive 2 training 27 1 tyfe tyfe 1 1293 Fc1_1321.png blocked same_cat NA 
12 BI passive 2 training 28 1 tyfe tyfe 1 795 Fc1_1311.png blocked same_cat NA 
12 BI passive 2 training 29 1 tyfe tyfe 1 1253 Fc1_1313.png blocked same_cat NA 
12 BI passive 2 training 30 1 tyfe tyfe 1 1199 Fc1_1322.png blocked same_cat NA 
12 BI passive 2 training 31 1 vune vune 1 1057 Fc1_1121.png blocked diff_cat NA 
12 BI passive 2 training 32 1 vune vune 1 1127 Fc1_1113.png blocked same_cat NA 
12 BI passive 2 training 33 1 zade zade 1 1081 Fc1_1222.png blocked diff_cat NA 
12 BI passive 2 training 34 1 zade zade 1 1176 Fc1_1221.png blocked same_cat NA 
12 BI passive 2 training 35 1 zade zade 1 1128 Fc1_1213.png blocked same_cat NA 
12 BI passive 2 training 36 1 zade zade 1 1138 Fc1_1213.png blocked same_cat NA 
12 BI passive 2 training 37 1 zade zade 1 1108 Fc1_1221.png blocked same_cat NA 
12 BI passive 2 training 38 1 zade zade 1 1425 Fc1_1212.png blocked same_cat NA 
12 BI passive 2 training 39 1 zade zade 1 1099 Fc1_1211.png blocked same_cat NA 
12 BI passive 2 training 40 1 zade zade 1 1150 Fc1_1213.png blocked same_cat NA 
12 BI passive 2 training 41 1 zade zade 1 853 Fc1_1211.png blocked same_cat NA 
12 BI passive 2 training 42 1 zade zade 1 998 Fc1_1211.png blocked same_cat NA 
12 BI passive 2 training 43 1 tyfe tyfe 1 903 Fc1_1313.png blocked diff_cat NA 
12 BI passive 2 training 44 1 zade zade 1 1343 Fc1_1212.png blocked diff_cat NA 
12 BI passive 2 training 45 1 vune vune 1 1189 Fc1_1122.png blocked diff_cat NA 
12 BI passive 2 training 46 1 vune vune 1 823 Fc1_1121.png blocked same_cat NA 
12 BI passive 2 training 47 1 vune vune 1 1232 Fc1_1112.png blocked same_cat NA 
12 BI passive 2 training 48 2 vune vune 1 1092 Fc1_1112.png blocked NA NA 
12 BI passive 2 training 49 2 tyfe tyfe 1 873 Fc1_1313.png blocked diff_cat NA 
12 BI passive 2 training 50 2 tyfe tyfe 1 815 Fc1_1311.png blocked same_cat NA 
12 BI passive 2 training 51 2 tyfe tyfe 1 895 Fc1_1321.png blocked same_cat NA 
12 BI passive 2 training 52 2 tyfe tyfe 1 1408 Fc1_1311.png blocked same_cat NA 
12 BI passive 2 training 53 2 tyfe tyfe 1 1370 Fc1_1313.png blocked same_cat NA 
12 BI passive 2 training 54 2 tyfe tyfe 1 939 Fc1_1322.png blocked same_cat NA 
12 BI passive 2 training 55 2 vune vune 1 1193 Fc1_1121.png blocked diff_cat NA 
12 BI passive 2 training 56 2 vune vune 1 1421 Fc1_1113.png blocked same_cat NA 
12 BI passive 2 training 57 2 zade zade 1 1109 Fc1_1222.png blocked diff_cat NA 
12 BI passive 2 training 58 2 zade zade 1 1127 Fc1_1221.png blocked same_cat NA 
12 BI passive 2 training 59 2 zade zade 1 1027 Fc1_1213.png blocked same_cat NA 
12 BI passive 2 training 60 2 zade zade 1 1121 Fc1_1213.png blocked same_cat NA 
12 BI passive 2 training 61 2 zade zade 1 935 Fc1_1221.png blocked same_cat NA 
12 BI passive 2 training 62 2 zade zade 1 924 Fc1_1212.png blocked same_cat NA 
12 BI passive 2 training 63 2 zade zade 1 1108 Fc1_1211.png blocked same_cat NA 
12 BI passive 2 training 64 2 zade zade 1 1315 Fc1_1213.png blocked same_cat NA 
12 BI passive 2 training 65 2 zade zade 1 2005 Fc1_1211.png blocked same_cat NA 
12 BI passive 2 training 66 2 zade zade 1 1037 Fc1_1211.png blocked same_cat NA 
12 BI passive 2 training 67 2 tyfe tyfe 1 1359 Fc1_1313.png blocked diff_cat NA 
12 BI passive 2 training 68 2 zade zade 1 1138 Fc1_1212.png blocked diff_cat NA 
12 BI passive 2 training 69 2 vune vune 1 1090 Fc1_1122.png blocked diff_cat NA 
12 BI passive 2 training 70 2 vune vune 1 1089 Fc1_1121.png blocked same_cat NA 
12 BI passive 2 training 71 2 vune vune 1 1098 Fc1_1112.png blocked same_cat NA 
12 BI passive 2 training 72 3 vune vune 1 1183 Fc1_1112.png blocked NA NA 
12 BI passive 2 training 73 3 tyfe tyfe 1 1086 Fc1_1313.png blocked diff_cat NA 
12 BI passive 2 training 74 3 tyfe tyfe 1 1046 Fc1_1311.png blocked same_cat NA 
12 BI passive 2 training 75 3 tyfe tyfe 1 1890 Fc1_1321.png blocked same_cat NA 
12 BI passive 2 training 76 3 tyfe tyfe 1 1230 Fc1_1311.png blocked same_cat NA 
12 BI passive 2 training 77 3 tyfe tyfe 1 701 Fc1_1313.png blocked same_cat NA 
12 BI passive 2 training 78 3 tyfe tyfe 1 1008 Fc1_1322.png blocked same_cat NA 
12 BI passive 2 training 79 3 vune vune 1 681 Fc1_1121.png blocked diff_cat NA 
12 BI passive 2 training 80 3 vune vune 1 1149 Fc1_1113.png blocked same_cat NA 
12 BI passive 2 training 81 3 zade zade 1 1188 Fc1_1222.png blocked diff_cat NA 
12 BI passive 2 training 82 3 zade zade 1 1120 Fc1_1221.png blocked same_cat NA 
12 BI passive 2 training 83 3 zade zade 1 1301 Fc1_1213.png blocked same_cat NA 
12 BI passive 2 training 84 3 zade zade 1 1068 Fc1_1213.png blocked same_cat NA 
12 BI passive 2 training 85 3 zade zade 1 966 Fc1_1221.png blocked same_cat NA 
12 BI passive 2 training 86 3 zade zade 1 1099 Fc1_1212.png blocked same_cat NA 
12 BI passive 2 training 87 3 zade zade 1 1586 Fc1_1211.png blocked same_cat NA 
12 BI passive 2 training 88 3 zade zade 1 1047 Fc1_1213.png blocked same_cat NA 
12 BI passive 2 training 89 3 zade zade 1 845 Fc1_1211.png blocked same_cat NA 
12 BI passive 2 training 90 3 zade zade 1 1613 Fc1_1211.png blocked same_cat NA 
12 BI passive 2 training 91 3 tyfe tyfe 1 1290 Fc1_1313.png blocked diff_cat NA 
12 BI passive 2 training 92 3 zade zade 1 926 Fc1_1212.png blocked diff_cat NA 
12 BI passive 2 training 93 3 vune vune 1 1008 Fc1_1122.png blocked diff_cat NA 
12 BI passive 2 training 94 3 vune vune 1 1202 Fc1_1121.png blocked same_cat NA 
12 BI passive 2 training 95 3 vune vune 1 1039 Fc1_1112.png blocked same_cat NA 
12 BI passive 2 test 0 0 vune vune 1 1442 Fc1_2113.png blocked NA novel 
12 BI passive 2 test 1 0 vune vune 1 927 Fc1_2123.png blocked same_cat novel 
12 BI passive 2 test 2 0 zade zade 1 1016 Fc1_2212.png blocked diff_cat novel 
12 BI passive 2 test 3 0 tyfe tyfe 1 593 Fc1_1321.png blocked diff_cat studied 
12 BI passive 2 test 4 0 vune vune 1 888 Fc1_2112.png blocked diff_cat novel 
12 BI passive 2 test 5 0 tyfe tyfe 1 1113 Fc1_2323.png blocked diff_cat novel 
12 BI passive 2 test 6 0 zade zade 1 805 Fc1_1221.png blocked diff_cat studied 
12 BI passive 2 test 7 0 tyfe tyfe 1 1107 Fc1_1313.png blocked diff_cat studied 
12 BI passive 2 test 8 0 tyfe tyfe 1 1026 Fc1_2313.png blocked same_cat novel 
12 BI passive 2 test 9 0 vune vune 1 741 Fc1_1111.png blocked diff_cat studied 
12 BI passive 2 test 10 0 vune vune 1 1011 Fc1_1122.png blocked same_cat studied 
12 BI passive 2 test 11 0 tyfe tyfe 1 980 Fc1_2311.png blocked diff_cat novel 
12 BI passive 2 test 12 0 zade zade 1 888 Fc1_1222.png blocked diff_cat studied 
12 BI passive 2 test 13 0 zade zade 1 1005 Fc1_2213.png blocked same_cat novel 
12 BI passive 2 test 14 0 vune vune 1 1069 Fc1_1112.png blocked diff_cat studied 
12 BI passive 2 test 15 0 vune vune 1 1129 Fc1_1123.png blocked same_cat novel 
12 BI passive 2 test 16 0 zade zade 1 1220 Fc1_1223.png blocked diff_cat novel 
12 BI passive 2 test 17 0 zade zade 1 1031 Fc1_1213.png blocked same_cat studied 
12 BI passive 2 test 18 0 vune vune 1 936 Fc1_1113.png blocked diff_cat studied 
12 BI passive 2 test 19 0 vune vune 1 915 Fc1_2111.png blocked same_cat novel 
12 BI passive 2 test 20 0 tyfe tyfe 1 755 Fc1_2312.png blocked diff_cat novel 
12 BI passive 2 test 21 0 tyfe tyfe 1 672 Fc1_1311.png blocked same_cat studied 
12 BI passive 2 test 22 0 zade zade 1 1493 Fc1_2211.png blocked diff_cat novel 
12 BI passive 2 test 23 0 tyfe tyfe 1 1192 Fc1_1312.png blocked diff_cat studied 
12 BI passive 2 test 24 0 zade zade 1 951 Fc1_2223.png blocked diff_cat novel 
12 BI passive 2 test 25 0 zade zade 1 1048 Fc1_1212.png blocked same_cat studied 
12 BI passive 2 test 26 0 tyfe tyfe 1 1452 Fc1_2322.png blocked diff_cat novel 
12 BI passive 2 test 27 0 zade zade 1 910 Fc1_2221.png blocked diff_cat novel 
12 BI passive 2 test 28 0 vune vune 1 859 Fc1_2121.png blocked diff_cat novel 
12 BI passive 2 test 29 0 tyfe tyfe 1 1798 Fc1_1322.png blocked diff_cat studied 
12 BI passive 2 test 30 0 zade zade 1 1087 Fc1_2222.png blocked diff_cat novel 
12 BI passive 2 test 31 0 zade zade 1 1319 Fc1_1211.png blocked same_cat studied 
12 BI passive 2 test 32 0 vune vune 1 1087 Fc1_1121.png blocked diff_cat studied 
12 BI passive 2 test 33 0 tyfe tyfe 1 1796 Fc1_2321.png blocked diff_cat novel 
12 BI passive 2 test 34 0 tyfe tyfe 1 1002 Fc1_1323.png blocked same_cat novel 
12 BI passive 2 test 35 0 vune vune 1 1688 Fc1_2122.png blocked diff_cat novel 
12 BI passive 2 training 0 0 beme beme 1 1283 Fb1_1111.png interleaved NA NA 
12 BI passive 2 training 1 0 beme beme 1 1467 Fb1_1122.png interleaved same_cat NA 
12 BI passive 2 training 2 0 beme beme 1 1557 Fb1_1121.png interleaved same_cat NA 
12 BI passive 2 training 3 0 coge coge 1 1008 Fb1_1313.png interleaved diff_cat NA 
12 BI passive 2 training 4 0 kipe kipe 1 1291 Fb1_1221.png interleaved diff_cat NA 
12 BI passive 2 training 5 0 kipe kipe 1 1110 Fb1_1222.png interleaved same_cat NA 
12 BI passive 2 training 6 0 coge coge 1 976 Fb1_1321.png interleaved diff_cat NA 
12 BI passive 2 training 7 0 kipe kipe 1 1041 Fb1_1213.png interleaved diff_cat NA 
12 BI passive 2 training 8 0 kipe kipe 1 1346 Fb1_1211.png interleaved same_cat NA 
12 BI passive 2 training 9 0 beme beme 1 1017 Fb1_1113.png interleaved diff_cat NA 
12 BI passive 2 training 10 0 coge coge 1 1066 Fb1_1312.png interleaved diff_cat NA 
12 BI passive 2 training 11 0 beme beme 1 1092 Fb1_1121.png interleaved diff_cat NA 
12 BI passive 2 training 12 0 beme beme 1 1342 Fb1_1113.png interleaved same_cat NA 
12 BI passive 2 training 13 0 kipe kipe 1 1016 Fb1_1211.png interleaved diff_cat NA 
12 BI passive 2 training 14 0 kipe kipe 1 895 Fb1_1221.png interleaved same_cat NA 
12 BI passive 2 training 15 0 beme beme 1 1171 Fb1_1111.png interleaved diff_cat NA 
12 BI passive 2 training 16 0 kipe kipe 1 967 Fb1_1211.png interleaved diff_cat NA 
12 BI passive 2 training 17 0 coge coge 1 1975 Fb1_1322.png interleaved diff_cat NA 
12 BI passive 2 training 18 0 kipe kipe 1 1365 Fb1_1221.png interleaved diff_cat NA 
12 BI passive 2 training 19 0 beme beme 1 1029 Fb1_1112.png interleaved diff_cat NA 
12 BI passive 2 training 20 0 kipe kipe 1 674 Fb1_1213.png interleaved diff_cat NA 
12 BI passive 2 training 21 0 beme beme 1 1067 Fb1_1122.png interleaved diff_cat NA 
12 BI passive 2 training 22 0 coge coge 1 1213 Fb1_1311.png interleaved diff_cat NA 
12 BI passive 2 training 23 0 kipe kipe 1 936 Fb1_1212.png interleaved diff_cat NA 
12 BI passive 2 training 24 1 beme beme 1 819 Fb1_1111.png interleaved NA NA 
12 BI passive 2 training 25 1 beme beme 1 906 Fb1_1122.png interleaved same_cat NA 
12 BI passive 2 training 26 1 beme beme 1 1090 Fb1_1121.png interleaved same_cat NA 
12 BI passive 2 training 27 1 coge coge 1 988 Fb1_1313.png interleaved diff_cat NA 
12 BI passive 2 training 28 1 kipe kipe 1 855 Fb1_1221.png interleaved diff_cat NA 
12 BI passive 2 training 29 1 kipe kipe 1 795 Fb1_1222.png interleaved same_cat NA 
12 BI passive 2 training 30 1 coge coge 1 956 Fb1_1321.png interleaved diff_cat NA 
12 BI passive 2 training 31 1 kipe kipe 1 865 Fb1_1213.png interleaved diff_cat NA 
12 BI passive 2 training 32 1 kipe kipe 1 1047 Fb1_1211.png interleaved same_cat NA 
12 BI passive 2 training 33 1 beme beme 1 1259 Fb1_1113.png interleaved diff_cat NA 
12 BI passive 2 training 34 1 coge coge 1 743 Fb1_1312.png interleaved diff_cat NA 
12 BI passive 2 training 35 1 beme beme 1 1222 Fb1_1121.png interleaved diff_cat NA 
12 BI passive 2 training 36 1 beme beme 1 1506 Fb1_1113.png interleaved same_cat NA 
12 BI passive 2 training 37 1 kipe kipe 1 766 Fb1_1211.png interleaved diff_cat NA 
12 BI passive 2 training 38 1 kipe kipe 1 1110 Fb1_1221.png interleaved same_cat NA 
12 BI passive 2 training 39 1 beme beme 1 938 Fb1_1111.png interleaved diff_cat NA 
12 BI passive 2 training 40 1 kipe kipe 1 875 Fb1_1211.png interleaved diff_cat NA 
12 BI passive 2 training 41 1 coge coge 1 886 Fb1_1322.png interleaved diff_cat NA 
12 BI passive 2 training 42 1 kipe kipe 1 712 Fb1_1221.png interleaved diff_cat NA 
12 BI passive 2 training 43 1 beme beme 1 1018 Fb1_1112.png interleaved diff_cat NA 
12 BI passive 2 training 44 1 kipe kipe 1 1474 Fb1_1213.png interleaved diff_cat NA 
12 BI passive 2 training 45 1 beme beme 1 931 Fb1_1122.png interleaved diff_cat NA 
12 BI passive 2 training 46 1 coge coge 1 945 Fb1_1311.png interleaved diff_cat NA 
12 BI passive 2 training 47 1 kipe kipe 1 857 Fb1_1212.png interleaved diff_cat NA 
12 BI passive 2 training 48 2 beme beme 1 816 Fb1_1111.png interleaved NA NA 
12 BI passive 2 training 49 2 beme beme 1 844 Fb1_1122.png interleaved same_cat NA 
12 BI passive 2 training 50 2 beme beme 1 1238 Fb1_1121.png interleaved same_cat NA 
12 BI passive 2 training 51 2 coge coge 1 1039 Fb1_1313.png interleaved diff_cat NA 
12 BI passive 2 training 52 2 kipe kipe 1 987 Fb1_1221.png interleaved diff_cat NA 
12 BI passive 2 training 53 2 kipe kipe 1 969 Fb1_1222.png interleaved same_cat NA 
12 BI passive 2 training 54 2 coge coge 1 1131 Fb1_1321.png interleaved diff_cat NA 
12 BI passive 2 training 55 2 kipe kipe 1 997 Fb1_1213.png interleaved diff_cat NA 
12 BI passive 2 training 56 2 kipe kipe 1 1090 Fb1_1211.png interleaved same_cat NA 
12 BI passive 2 training 57 2 beme beme 1 1521 Fb1_1113.png interleaved diff_cat NA 
12 BI passive 2 training 58 2 coge coge 1 1287 Fb1_1312.png interleaved diff_cat NA 
12 BI passive 2 training 59 2 beme beme 1 1251 Fb1_1121.png interleaved diff_cat NA 
12 BI passive 2 training 60 2 beme beme 1 898 Fb1_1113.png interleaved same_cat NA 
12 BI passive 2 training 61 2 kipe kipe 1 948 Fb1_1211.png interleaved diff_cat NA 
12 BI passive 2 training 62 2 kipe kipe 1 929 Fb1_1221.png interleaved same_cat NA 
12 BI passive 2 training 63 2 beme beme 1 1621 Fb1_1111.png interleaved diff_cat NA 
12 BI passive 2 training 64 2 kipe kipe 1 1099 Fb1_1211.png interleaved diff_cat NA 
12 BI passive 2 training 65 2 coge coge 1 1050 Fb1_1322.png interleaved diff_cat NA 
12 BI passive 2 training 66 2 kipe kipe 1 865 Fb1_1221.png interleaved diff_cat NA 
12 BI passive 2 training 67 2 beme beme 1 767 Fb1_1112.png interleaved diff_cat NA 
12 BI passive 2 training 68 2 kipe kipe 1 946 Fb1_1213.png interleaved diff_cat NA 
12 BI passive 2 training 69 2 beme beme 1 800 Fb1_1122.png interleaved diff_cat NA 
12 BI passive 2 training 70 2 coge coge 1 999 Fb1_1311.png interleaved diff_cat NA 
12 BI passive 2 training 71 2 kipe kipe 1 1052 Fb1_1212.png interleaved diff_cat NA 
12 BI passive 2 training 72 3 beme beme 1 857 Fb1_1111.png interleaved NA NA 
12 BI passive 2 training 73 3 beme beme 1 1058 Fb1_1122.png interleaved same_cat NA 
12 BI passive 2 training 74 3 beme beme 1 1129 Fb1_1121.png interleaved same_cat NA 
12 BI passive 2 training 75 3 coge coge 1 2218 Fb1_1313.png interleaved diff_cat NA 
12 BI passive 2 training 76 3 kipe kipe 1 928 Fb1_1221.png interleaved diff_cat NA 
12 BI passive 2 training 77 3 kipe kipe 1 1191 Fb1_1222.png interleaved same_cat NA 
12 BI passive 2 training 78 3 coge coge 1 1505 Fb1_1321.png interleaved diff_cat NA 
12 BI passive 2 training 79 3 kipe kipe 1 1000 Fb1_1213.png interleaved diff_cat NA 
12 BI passive 2 training 80 3 kipe kipe 1 928 Fb1_1211.png interleaved same_cat NA 
12 BI passive 2 training 81 3 beme beme 1 1018 Fb1_1113.png interleaved diff_cat NA 
12 BI passive 2 training 82 3 coge coge 1 825 Fb1_1312.png interleaved diff_cat NA 
12 BI passive 2 training 83 3 beme beme 1 1459 Fb1_1121.png interleaved diff_cat NA 
12 BI passive 2 training 84 3 beme beme 1 938 Fb1_1113.png interleaved same_cat NA 
12 BI passive 2 training 85 3 kipe kipe 1 1010 Fb1_1211.png interleaved diff_cat NA 
12 BI passive 2 training 86 3 kipe kipe 1 1518 Fb1_1221.png interleaved same_cat NA 
12 BI passive 2 training 87 3 beme beme 1 1254 Fb1_1111.png interleaved diff_cat NA 
12 BI passive 2 training 88 3 kipe kipe 1 965 Fb1_1211.png interleaved diff_cat NA 
12 BI passive 2 training 89 3 coge coge 1 1696 Fb1_1322.png interleaved diff_cat NA 
12 BI passive 2 training 90 3 kipe kipe 1 865 Fb1_1221.png interleaved diff_cat NA 
12 BI passive 2 training 91 3 beme beme 1 998 Fb1_1112.png interleaved diff_cat NA 
12 BI passive 2 training 92 3 kipe kipe 1 1913 Fb1_1213.png interleaved diff_cat NA 
12 BI passive 2 training 93 3 beme beme 1 846 Fb1_1122.png interleaved diff_cat NA 
12 BI passive 2 training 94 3 coge coge 1 887 Fb1_1311.png interleaved diff_cat NA 
12 BI passive 2 training 95 3 kipe kipe 1 1090 Fb1_1212.png interleaved diff_cat NA 
12 BI passive 2 test 0 0 beme beme 1 879 Fb1_1113.png interleaved NA studied 
12 BI passive 2 test 1 0 kipe kipe 1 747 Fb1_1223.png interleaved diff_cat novel 
12 BI passive 2 test 2 0 kipe kipe 1 693 Fb1_2211.png interleaved same_cat novel 
12 BI passive 2 test 3 0 kipe kipe 1 724 Fb1_2212.png interleaved same_cat novel 
12 BI passive 2 test 4 0 kipe kipe 1 693 Fb1_1211.png interleaved same_cat studied 
12 BI passive 2 test 5 0 beme beme 1 747 Fb1_1112.png interleaved diff_cat studied 
12 BI passive 2 test 6 0 coge coge 1 763 Fb1_2312.png interleaved diff_cat novel 
12 BI passive 2 test 7 0 beme beme 1 895 Fb1_2122.png interleaved diff_cat novel 
12 BI passive 2 test 8 0 coge coge 1 877 Fb1_2311.png interleaved diff_cat novel 
12 BI passive 2 test 9 0 kipe kipe 1 807 Fb1_2223.png interleaved diff_cat novel 
12 BI passive 2 test 10 0 coge coge 1 703 Fb1_1313.png interleaved diff_cat studied 
12 BI passive 2 test 11 0 coge coge 1 1231 Fb1_1323.png interleaved same_cat novel 
12 BI passive 2 test 12 0 coge coge 1 889 Fb1_2323.png interleaved same_cat novel 
12 BI passive 2 test 13 0 coge coge 1 2869 Fb1_1311.png interleaved same_cat studied 
12 BI passive 2 test 14 0 beme beme 1 855 Fb1_2113.png interleaved diff_cat novel 
12 BI passive 2 test 15 0 coge coge 1 747 Fb1_2321.png interleaved diff_cat novel 
12 BI passive 2 test 16 0 coge coge 1 673 Fb1_2322.png interleaved same_cat novel 
12 BI passive 2 test 17 0 kipe kipe 1 769 Fb1_1212.png interleaved diff_cat studied 
12 BI passive 2 test 18 0 kipe kipe 1 840 Fb1_1221.png interleaved same_cat studied 
12 BI passive 2 test 19 0 beme beme 1 785 Fb1_1123.png interleaved diff_cat novel 
12 BI passive 2 test 20 0 coge coge 1 675 Fb1_1321.png interleaved diff_cat studied 
12 BI passive 2 test 21 0 coge coge 1 728 Fb1_2313.png interleaved same_cat novel 
12 BI passive 2 test 22 0 coge coge 1 747 Fb1_1322.png interleaved same_cat studied 
12 BI passive 2 test 23 0 coge coge 1 828 Fb1_1312.png interleaved same_cat studied 
12 BI passive 2 test 24 0 beme beme 1 806 Fb1_2123.png interleaved diff_cat novel 
12 BI passive 2 test 25 0 kipe kipe 1 745 Fb1_2221.png interleaved diff_cat novel 
12 BI passive 2 test 26 0 kipe kipe 1 766 Fb1_2222.png interleaved same_cat novel 
12 BI passive 2 test 27 0 beme beme 1 829 Fb1_2111.png interleaved diff_cat novel 
12 BI passive 2 test 28 0 beme beme 1 1198 Fb1_1122.png interleaved same_cat studied 
12 BI passive 2 test 29 0 beme beme 1 796 Fb1_2121.png interleaved same_cat novel 
12 BI passive 2 test 30 0 kipe kipe 1 645 Fb1_2213.png interleaved diff_cat novel 
12 BI passive 2 test 31 0 beme beme 1 553 Fb1_1111.png interleaved diff_cat studied 
12 BI passive 2 test 32 0 beme beme 1 704 Fb1_1121.png interleaved same_cat studied 
12 BI passive 2 test 33 0 kipe kipe 1 721 Fb1_1222.png interleaved diff_cat studied 
12 BI passive 2 test 34 0 beme beme 1 856 Fb1_2112.png interleaved diff_cat novel 
12 BI passive 2 test 35 0 kipe kipe 1 815 Fb1_1213.png interleaved diff_cat studied 
13 IB passive 1 training 0 0 tyfe tyfe 1 2550 Fb1_1311.png interleaved NA NA 
13 IB passive 1 training 1 0 tyfe tyfe 1 1602 Fb1_1312.png interleaved same_cat NA 
13 IB passive 1 training 2 0 tyfe tyfe 1 2124 Fb1_1322.png interleaved same_cat NA 
13 IB passive 1 training 3 0 tyfe tyfe 1 1350 Fb1_1311.png interleaved same_cat NA 
13 IB passive 1 training 4 0 tyfe tyfe 1 1297 Fb1_1312.png interleaved same_cat NA 
13 IB passive 1 training 5 0 beme beme 1 1632 Fb1_1122.png interleaved diff_cat NA 
13 IB passive 1 training 6 0 zade zade 1 7059 Fb1_1222.png interleaved diff_cat NA 
13 IB passive 1 training 7 0 beme beme 1 1160 Fb1_1112.png interleaved diff_cat NA 
13 IB passive 1 training 8 0 tyfe tyfe 1 795 Fb1_1321.png interleaved diff_cat NA 
13 IB passive 1 training 9 0 beme beme 1 1068 Fb1_1121.png interleaved diff_cat NA 
13 IB passive 1 training 10 0 beme beme 1 1659 Fb1_1111.png interleaved same_cat NA 
13 IB passive 1 training 11 0 tyfe tyfe 1 1222 Fb1_1322.png interleaved diff_cat NA 
13 IB passive 1 training 12 0 zade zade 1 1167 Fb1_1213.png interleaved diff_cat NA 
13 IB passive 1 training 13 0 beme beme 1 1969 Fb1_1112.png interleaved diff_cat NA 
13 IB passive 1 training 14 0 tyfe tyfe 1 1298 Fb1_1313.png interleaved diff_cat NA 
13 IB passive 1 training 15 0 beme beme 1 1074 Fb1_1122.png interleaved diff_cat NA 
13 IB passive 1 training 16 0 tyfe tyfe 1 1115 Fb1_1321.png interleaved diff_cat NA 
13 IB passive 1 training 17 0 zade zade 1 1017 Fb1_1213.png interleaved diff_cat NA 
13 IB passive 1 training 18 0 tyfe tyfe 1 1303 Fb1_1321.png interleaved diff_cat NA 
13 IB passive 1 training 19 0 zade zade 1 1057 Fb1_1222.png interleaved diff_cat NA 
13 IB passive 1 training 20 0 tyfe tyfe 1 1260 Fb1_1311.png interleaved diff_cat NA 
13 IB passive 1 training 21 0 zade zade 1 2003 Fb1_1222.png interleaved diff_cat NA 
13 IB passive 1 training 22 0 beme beme 1 1228 Fb1_1112.png interleaved diff_cat NA 
13 IB passive 1 training 23 0 zade zade 1 1261 Fb1_1221.png interleaved diff_cat NA 
13 IB passive 1 training 24 1 tyfe tyfe 1 1236 Fb1_1311.png interleaved NA NA 
13 IB passive 1 training 25 1 tyfe tyfe 1 1262 Fb1_1312.png interleaved same_cat NA 
13 IB passive 1 training 26 1 tyfe tyfe 1 902 Fb1_1322.png interleaved same_cat NA 
13 IB passive 1 training 27 1 tyfe tyfe 1 1468 Fb1_1311.png interleaved same_cat NA 
13 IB passive 1 training 28 1 tyfe tyfe 1 1761 Fb1_1312.png interleaved same_cat NA 
13 IB passive 1 training 29 1 beme beme 1 1076 Fb1_1122.png interleaved diff_cat NA 
13 IB passive 1 training 30 1 zade zade 1 1156 Fb1_1222.png interleaved diff_cat NA 
13 IB passive 1 training 31 1 beme beme 1 1280 Fb1_1112.png interleaved diff_cat NA 
13 IB passive 1 training 32 1 tyfe tyfe 1 1229 Fb1_1321.png interleaved diff_cat NA 
13 IB passive 1 training 33 1 beme beme 1 1434 Fb1_1121.png interleaved diff_cat NA 
13 IB passive 1 training 34 1 beme beme 1 908 Fb1_1111.png interleaved same_cat NA 
13 IB passive 1 training 35 1 tyfe tyfe 1 1349 Fb1_1322.png interleaved diff_cat NA 
13 IB passive 1 training 36 1 zade zade 1 1186 Fb1_1213.png interleaved diff_cat NA 
13 IB passive 1 training 37 1 beme beme 1 1318 Fb1_1112.png interleaved diff_cat NA 
13 IB passive 1 training 38 1 tyfe tyfe 1 1066 Fb1_1313.png interleaved diff_cat NA 
13 IB passive 1 training 39 1 beme beme 1 1199 Fb1_1122.png interleaved diff_cat NA 
13 IB passive 1 training 40 1 tyfe tyfe 1 993 Fb1_1321.png interleaved diff_cat NA 
13 IB passive 1 training 41 1 zade zade 1 1403 Fb1_1213.png interleaved diff_cat NA 
13 IB passive 1 training 42 1 tyfe tyfe 1 1097 Fb1_1321.png interleaved diff_cat NA 
13 IB passive 1 training 43 1 zade zade 1 1188 Fb1_1222.png interleaved diff_cat NA 
13 IB passive 1 training 44 1 tyfe tyfe 1 2254 Fb1_1311.png interleaved diff_cat NA 
13 IB passive 1 training 45 1 zade zade 1 1468 Fb1_1222.png interleaved diff_cat NA 
13 IB passive 1 training 46 1 beme beme 1 1129 Fb1_1112.png interleaved diff_cat NA 
13 IB passive 1 training 47 1 zade zade 1 1188 Fb1_1221.png interleaved diff_cat NA 
13 IB passive 1 training 48 2 tyfe tyfe 1 754 Fb1_1311.png interleaved NA NA 
13 IB passive 1 training 49 2 tyfe tyfe 1 1120 Fb1_1312.png interleaved same_cat NA 
13 IB passive 1 training 50 2 tyfe tyfe 1 1217 Fb1_1322.png interleaved same_cat NA 
13 IB passive 1 training 51 2 tyfe tyfe 1 1436 Fb1_1311.png interleaved same_cat NA 
13 IB passive 1 training 52 2 tyfe tyfe 1 1248 Fb1_1312.png interleaved same_cat NA 
13 IB passive 1 training 53 2 beme beme 1 1105 Fb1_1122.png interleaved diff_cat NA 
13 IB passive 1 training 54 2 zade zade 1 1298 Fb1_1222.png interleaved diff_cat NA 
13 IB passive 1 training 55 2 beme beme 1 762 Fb1_1112.png interleaved diff_cat NA 
13 IB passive 1 training 56 2 tyfe tyfe 1 1197 Fb1_1321.png interleaved diff_cat NA 
13 IB passive 1 training 57 2 beme beme 1 732 Fb1_1121.png interleaved diff_cat NA 
13 IB passive 1 training 58 2 beme beme 1 1391 Fb1_1111.png interleaved same_cat NA 
13 IB passive 1 training 59 2 tyfe tyfe 1 996 Fb1_1322.png interleaved diff_cat NA 
13 IB passive 1 training 60 2 zade zade 1 1067 Fb1_1213.png interleaved diff_cat NA 
13 IB passive 1 training 61 2 beme beme 1 722 Fb1_1112.png interleaved diff_cat NA 
13 IB passive 1 training 62 2 tyfe tyfe 1 1109 Fb1_1313.png interleaved diff_cat NA 
13 IB passive 1 training 63 2 beme beme 1 914 Fb1_1122.png interleaved diff_cat NA 
13 IB passive 1 training 64 2 tyfe tyfe 1 1188 Fb1_1321.png interleaved diff_cat NA 
13 IB passive 1 training 65 2 zade zade 1 1314 Fb1_1213.png interleaved diff_cat NA 
13 IB passive 1 training 66 2 tyfe tyfe 1 1026 Fb1_1321.png interleaved diff_cat NA 
13 IB passive 1 training 67 2 zade zade 1 1099 Fb1_1222.png interleaved diff_cat NA 
13 IB passive 1 training 68 2 tyfe tyfe 1 1016 Fb1_1311.png interleaved diff_cat NA 
13 IB passive 1 training 69 2 zade zade 1 1223 Fb1_1222.png interleaved diff_cat NA 
13 IB passive 1 training 70 2 beme beme 1 834 Fb1_1112.png interleaved diff_cat NA 
13 IB passive 1 training 71 2 zade zade 1 1110 Fb1_1221.png interleaved diff_cat NA 
13 IB passive 1 training 72 3 tyfe tyfe 1 916 Fb1_1311.png interleaved NA NA 
13 IB passive 1 training 73 3 tyfe tyfe 1 792 Fb1_1312.png interleaved same_cat NA 
13 IB passive 1 training 74 3 tyfe tyfe 1 945 Fb1_1322.png interleaved same_cat NA 
13 IB passive 1 training 75 3 tyfe tyfe 1 1014 Fb1_1311.png interleaved same_cat NA 
13 IB passive 1 training 76 3 tyfe tyfe 1 1075 Fb1_1312.png interleaved same_cat NA 
13 IB passive 1 training 77 3 beme beme 1 1045 Fb1_1122.png interleaved diff_cat NA 
13 IB passive 1 training 78 3 zade zade 1 1487 Fb1_1222.png interleaved diff_cat NA 
13 IB passive 1 training 79 3 beme beme 1 1160 Fb1_1112.png interleaved diff_cat NA 
13 IB passive 1 training 80 3 tyfe tyfe 1 1186 Fb1_1321.png interleaved diff_cat NA 
13 IB passive 1 training 81 3 beme beme 1 906 Fb1_1121.png interleaved diff_cat NA 
13 IB passive 1 training 82 3 beme beme 1 1100 Fb1_1111.png interleaved same_cat NA 
13 IB passive 1 training 83 3 tyfe tyfe 1 966 Fb1_1322.png interleaved diff_cat NA 
13 IB passive 1 training 84 3 zade zade 1 1257 Fb1_1213.png interleaved diff_cat NA 
13 IB passive 1 training 85 3 beme beme 1 653 Fb1_1112.png interleaved diff_cat NA 
13 IB passive 1 training 86 3 tyfe tyfe 1 1198 Fb1_1313.png interleaved diff_cat NA 
13 IB passive 1 training 87 3 beme beme 1 968 Fb1_1122.png interleaved diff_cat NA 
13 IB passive 1 training 88 3 tyfe tyfe 1 1066 Fb1_1321.png interleaved diff_cat NA 
13 IB passive 1 training 89 3 zade zade 1 1080 Fb1_1213.png interleaved diff_cat NA 
13 IB passive 1 training 90 3 tyfe tyfe 1 1291 Fb1_1321.png interleaved diff_cat NA 
13 IB passive 1 training 91 3 zade zade 1 1368 Fb1_1222.png interleaved diff_cat NA 
13 IB passive 1 training 92 3 tyfe tyfe 1 863 Fb1_1311.png interleaved diff_cat NA 
13 IB passive 1 training 93 3 zade zade 1 745 Fb1_1222.png interleaved diff_cat NA 
13 IB passive 1 training 94 3 beme beme 1 934 Fb1_1112.png interleaved diff_cat NA 
13 IB passive 1 training 95 3 zade zade 1 1203 Fb1_1221.png interleaved diff_cat NA 
13 IB passive 1 test 0 0 tyfe beme 0 4331 Fb1_1113.png interleaved NA studied 
13 IB passive 1 test 1 0 beme zade 0 1591 Fb1_1212.png interleaved diff_cat studied 
13 IB passive 1 test 2 0 zade tyfe 0 1028 Fb1_1322.png interleaved diff_cat studied 
13 IB passive 1 test 3 0 zade tyfe 0 1781 Fb1_1311.png interleaved same_cat studied 
13 IB passive 1 test 4 0 zade tyfe 0 3652 Fb1_2313.png interleaved same_cat novel 
13 IB passive 1 test 5 0 tyfe zade 0 2624 Fb1_1223.png interleaved diff_cat novel 
13 IB passive 1 test 6 0 tyfe beme 0 1118 Fb1_1122.png interleaved diff_cat studied 
13 IB passive 1 test 7 0 tyfe tyfe 1 2060 Fb1_2312.png interleaved diff_cat novel 
13 IB passive 1 test 8 0 beme zade 0 601 Fb1_1211.png interleaved diff_cat studied 
13 IB passive 1 test 9 0 beme tyfe 0 662 Fb1_1321.png interleaved diff_cat studied 
13 IB passive 1 test 10 0 zade beme 0 1138 Fb1_2121.png interleaved diff_cat novel 
13 IB passive 1 test 11 0 zade zade 1 1910 Fb1_2223.png interleaved diff_cat novel 
13 IB passive 1 test 12 0 zade zade 1 834 Fb1_2221.png interleaved same_cat novel 
13 IB passive 1 test 13 0 zade zade 1 1233 Fb1_2211.png interleaved same_cat novel 
13 IB passive 1 test 14 0 zade zade 1 1896 Fb1_2212.png interleaved same_cat novel 
13 IB passive 1 test 15 0 tyfe beme 0 1169 Fb1_1123.png interleaved diff_cat novel 
13 IB passive 1 test 16 0 tyfe beme 0 1041 Fb1_1112.png interleaved same_cat studied 
13 IB passive 1 test 17 0 zade tyfe 0 1326 Fb1_2322.png interleaved diff_cat novel 
13 IB passive 1 test 18 0 beme zade 0 2523 Fb1_1213.png interleaved diff_cat studied 
13 IB passive 1 test 19 0 tyfe tyfe 1 1134 Fb1_1312.png interleaved diff_cat studied 
13 IB passive 1 test 20 0 zade tyfe 0 915 Fb1_2323.png interleaved same_cat novel 
13 IB passive 1 test 21 0 zade tyfe 0 894 Fb1_2311.png interleaved same_cat novel 
13 IB passive 1 test 22 0 zade zade 1 874 Fb1_2222.png interleaved diff_cat novel 
13 IB passive 1 test 23 0 tyfe tyfe 1 1546 Fb1_1323.png interleaved diff_cat novel 
13 IB passive 1 test 24 0 zade tyfe 0 1007 Fb1_2321.png interleaved same_cat novel 
13 IB passive 1 test 25 0 tyfe zade 0 1157 Fb1_1221.png interleaved diff_cat studied 
13 IB passive 1 test 26 0 zade beme 0 1463 Fb1_2112.png interleaved diff_cat novel 
13 IB passive 1 test 27 0 beme beme 1 783 Fb1_2123.png interleaved same_cat novel 
13 IB passive 1 test 28 0 tyfe zade 0 1069 Fb1_1222.png interleaved diff_cat studied 
13 IB passive 1 test 29 0 zade zade 1 1020 Fb1_2213.png interleaved same_cat novel 
13 IB passive 1 test 30 0 zade beme 0 1228 Fb1_2113.png interleaved diff_cat novel 
13 IB passive 1 test 31 0 beme beme 1 995 Fb1_2122.png interleaved same_cat novel 
13 IB passive 1 test 32 0 tyfe tyfe 1 1165 Fb1_1313.png interleaved diff_cat studied 
13 IB passive 1 test 33 0 tyfe beme 0 1073 Fb1_1121.png interleaved diff_cat studied 
13 IB passive 1 test 34 0 zade beme 0 3010 Fb1_2111.png interleaved same_cat novel 
13 IB passive 1 test 35 0 tyfe beme 0 633 Fb1_1111.png interleaved same_cat studied 
13 IB passive 1 training 0 0 coge coge 1 1225 Fc1_1312.png blocked NA NA 
13 IB passive 1 training 1 0 kipe kipe 1 1208 Fc1_1212.png blocked diff_cat NA 
13 IB passive 1 training 2 0 coge coge 1 1709 Fc1_1313.png blocked diff_cat NA 
13 IB passive 1 training 3 0 coge coge 1 1106 Fc1_1321.png blocked same_cat NA 
13 IB passive 1 training 4 0 kipe kipe 1 1014 Fc1_1211.png blocked diff_cat NA 
13 IB passive 1 training 5 0 kipe kipe 1 1058 Fc1_1211.png blocked same_cat NA 
13 IB passive 1 training 6 0 kipe kipe 1 1516 Fc1_1212.png blocked same_cat NA 
13 IB passive 1 training 7 0 kipe kipe 1 771 Fc1_1213.png blocked same_cat NA 
13 IB passive 1 training 8 0 kipe kipe 1 760 Fc1_1221.png blocked same_cat NA 
13 IB passive 1 training 9 0 kipe kipe 1 963 Fc1_1222.png blocked same_cat NA 
13 IB passive 1 training 10 0 vune vune 1 1717 Fc1_1112.png blocked diff_cat NA 
13 IB passive 1 training 11 0 vune vune 1 1272 Fc1_1122.png blocked same_cat NA 
